SpectraSuite Data File
++++++++++++++++++++++++++++++++++++
Date: Fri Jul 12 14:30:12 ART 2024
User: Javier
Dark Spectrum Present: Yes
Reference Spectrum Present: No
Number of Sampled Component Spectra: 1
Spectrometers: ADUD7991
Integration Time (usec): 8000 (ADUD7991)
Spectra Averaged: 1 (ADUD7991)
Boxcar Smoothing: 0 (ADUD7991)
Correct for Electrical Dark: No (ADUD7991)
Strobe/Lamp Enabled: No (ADUD7991)
Correct for Detector Non-linearity: No (ADUD7991)
Correct for Stray Light: No (ADUD7991)
Number of Pixels in Processed Spectrum: 2048
>>>>>Begin Processed Spectral Data<<<<<
338.97	0.00
339.33	-6.00
339.70	0.00
340.06	5.00
340.42	5.00
340.79	0.00
341.15	2.00
341.52	-2.00
341.88	7.00
342.24	-4.00
342.61	2.00
342.97	-1.00
343.33	1.00
343.70	-4.00
344.06	1.00
344.43	5.00
344.79	-2.00
345.15	7.00
345.52	1.00
345.88	5.00
346.24	9.00
346.61	1.00
346.97	1.00
347.33	5.00
347.70	-2.00
348.06	3.00
348.42	-1.00
348.79	1.00
349.15	-5.00
349.51	10.00
349.88	1.00
350.24	-4.00
350.60	2.00
350.97	4.00
351.33	1.00
351.69	7.00
352.05	8.00
352.42	7.00
352.78	4.00
353.14	7.00
353.51	3.00
353.87	6.00
354.23	6.00
354.60	4.00
354.96	0.00
355.32	3.00
355.68	4.00
356.05	-3.00
356.41	0.00
356.77	1.00
357.13	-3.00
357.50	1.00
357.86	2.00
358.22	-4.00
358.58	7.00
358.95	2.00
359.31	7.00
359.67	3.00
360.03	-1.00
360.40	1.00
360.76	1.00
361.12	-4.00
361.48	0.00
361.85	6.00
362.21	2.00
362.57	5.00
362.93	2.00
363.29	1.00
363.66	-3.00
364.02	-5.00
364.38	0.00
364.74	7.00
365.10	1.00
365.47	2.00
365.83	1.00
366.19	2.00
366.55	8.00
366.91	1.00
367.28	7.00
367.64	2.00
368.00	3.00
368.36	5.00
368.72	-1.00
369.08	1.00
369.45	-5.00
369.81	-2.00
370.17	4.00
370.53	9.00
370.89	0.00
371.25	1.00
371.62	1.00
371.98	6.00
372.34	4.00
372.70	-1.00
373.06	-4.00
373.42	5.00
373.78	-2.00
374.14	5.00
374.51	0.00
374.87	6.00
375.23	6.00
375.59	-1.00
375.95	7.00
376.31	1.00
376.67	-1.00
377.03	2.00
377.39	4.00
377.76	6.00
378.12	-3.00
378.48	4.00
378.84	-1.00
379.20	6.00
379.56	-2.00
379.92	6.00
380.28	0.00
380.64	7.00
381.00	0.00
381.36	7.00
381.72	-2.00
382.08	4.00
382.45	8.00
382.81	2.00
383.17	2.00
383.53	5.00
383.89	-1.00
384.25	-4.00
384.61	12.00
384.97	3.00
385.33	0.00
385.69	8.00
386.05	-1.00
386.41	3.00
386.77	7.00
387.13	-6.00
387.49	1.00
387.85	7.00
388.21	-1.00
388.57	7.00
388.93	7.00
389.29	3.00
389.65	6.00
390.01	2.00
390.37	8.00
390.73	5.00
391.09	10.00
391.45	2.00
391.81	1.00
392.17	15.00
392.53	11.00
392.89	12.00
393.25	13.00
393.61	3.00
393.97	10.00
394.33	8.00
394.69	15.00
395.05	17.00
395.41	19.00
395.77	15.00
396.12	13.00
396.48	11.00
396.84	22.00
397.20	16.00
397.56	18.00
397.92	29.00
398.28	19.00
398.64	30.00
399.00	26.00
399.36	26.00
399.72	27.00
400.08	32.00
400.44	28.00
400.79	31.00
401.15	35.00
401.51	32.00
401.87	34.00
402.23	34.00
402.59	47.00
402.95	37.00
403.31	35.00
403.67	46.00
404.02	45.00
404.38	40.00
404.74	48.00
405.10	47.00
405.46	58.00
405.82	56.00
406.18	59.00
406.53	60.00
406.89	62.00
407.25	63.00
407.61	63.00
407.97	69.00
408.33	56.00
408.69	70.00
409.04	68.00
409.40	61.00
409.76	66.00
410.12	71.00
410.48	66.00
410.83	70.00
411.19	82.00
411.55	78.00
411.91	79.00
412.27	87.00
412.63	74.00
412.98	75.00
413.34	69.00
413.70	79.00
414.06	87.00
414.41	74.00
414.77	89.00
415.13	83.00
415.49	91.00
415.85	88.00
416.20	86.00
416.56	97.00
416.92	97.00
417.28	93.00
417.63	94.00
417.99	94.00
418.35	99.00
418.71	98.00
419.06	100.00
419.42	104.00
419.78	116.00
420.14	99.00
420.49	105.00
420.85	106.00
421.21	103.00
421.57	105.00
421.92	110.00
422.28	99.00
422.64	109.00
422.99	109.00
423.35	118.00
423.71	116.00
424.06	118.00
424.42	107.00
424.78	119.00
425.14	118.00
425.49	120.00
425.85	117.00
426.21	118.00
426.56	116.00
426.92	130.00
427.28	135.00
427.63	128.00
427.99	114.00
428.35	131.00
428.70	130.00
429.06	124.00
429.42	137.00
429.77	138.00
430.13	139.00
430.49	148.00
430.84	130.00
431.20	139.00
431.55	129.00
431.91	140.00
432.27	138.00
432.62	153.00
432.98	137.00
433.34	152.00
433.69	157.00
434.05	146.00
434.40	149.00
434.76	153.00
435.12	159.00
435.47	156.00
435.83	157.00
436.18	169.00
436.54	165.00
436.90	164.00
437.25	162.00
437.61	171.00
437.96	173.00
438.32	171.00
438.67	170.00
439.03	182.00
439.39	172.00
439.74	175.00
440.10	187.00
440.45	198.00
440.81	192.00
441.16	195.00
441.52	188.00
441.87	198.00
442.23	203.00
442.59	202.00
442.94	206.00
443.30	204.00
443.65	204.00
444.01	205.00
444.36	203.00
444.72	226.00
445.07	221.00
445.43	239.00
445.78	222.00
446.14	236.00
446.49	234.00
446.85	232.00
447.20	233.00
447.56	226.00
447.91	249.00
448.27	262.00
448.62	260.00
448.98	255.00
449.33	258.00
449.69	280.00
450.04	276.00
450.39	276.00
450.75	295.00
451.10	288.00
451.46	280.00
451.81	290.00
452.17	286.00
452.52	299.00
452.88	314.00
453.23	311.00
453.58	313.00
453.94	322.00
454.29	305.00
454.65	319.00
455.00	337.00
455.36	330.00
455.71	346.00
456.06	334.00
456.42	335.00
456.77	350.00
457.13	350.00
457.48	378.00
457.83	354.00
458.19	377.00
458.54	373.00
458.90	361.00
459.25	393.00
459.60	409.00
459.96	410.00
460.31	412.00
460.66	401.00
461.02	413.00
461.37	415.00
461.73	425.00
462.08	448.00
462.43	444.00
462.79	439.00
463.14	456.00
463.49	459.00
463.85	468.00
464.20	476.00
464.55	493.00
464.91	497.00
465.26	490.00
465.61	515.00
465.97	508.00
466.32	515.00
466.67	515.00
467.03	560.00
467.38	559.00
467.73	569.00
468.08	567.00
468.44	570.00
468.79	575.00
469.14	587.00
469.50	588.00
469.85	612.00
470.20	630.00
470.55	637.00
470.91	640.00
471.26	660.00
471.61	655.00
471.97	671.00
472.32	687.00
472.67	685.00
473.02	714.00
473.38	722.00
473.73	733.00
474.08	753.00
474.43	773.00
474.78	788.00
475.14	775.00
475.49	806.00
475.84	828.00
476.19	813.00
476.55	854.00
476.90	839.00
477.25	878.00
477.60	879.00
477.95	871.00
478.31	915.00
478.66	911.00
479.01	956.00
479.36	964.00
479.71	975.00
480.07	996.00
480.42	1010.00
480.77	1026.00
481.12	1033.00
481.47	1048.00
481.82	1070.00
482.18	1090.00
482.53	1112.00
482.88	1117.00
483.23	1143.00
483.58	1140.00
483.93	1176.00
484.29	1189.00
484.64	1197.00
484.99	1237.00
485.34	1225.00
485.69	1272.00
486.04	1280.00
486.39	1273.00
486.74	1307.00
487.10	1317.00
487.45	1322.00
487.80	1351.00
488.15	1367.00
488.50	1386.00
488.85	1388.00
489.20	1422.00
489.55	1435.00
489.90	1429.00
490.26	1456.00
490.61	1472.00
490.96	1495.00
491.31	1522.00
491.66	1523.00
492.01	1553.00
492.36	1564.00
492.71	1570.00
493.06	1583.00
493.41	1612.00
493.76	1630.00
494.11	1644.00
494.46	1636.00
494.81	1663.00
495.16	1667.00
495.51	1703.00
495.86	1726.00
496.21	1749.00
496.56	1745.00
496.91	1759.00
497.27	1787.00
497.62	1783.00
497.97	1833.00
498.32	1831.00
498.67	1835.00
499.02	1857.00
499.37	1861.00
499.72	1899.00
500.07	1883.00
500.42	1926.00
500.77	1920.00
501.11	1939.00
501.46	1932.00
501.81	1975.00
502.16	1992.00
502.51	2003.00
502.86	2030.00
503.21	2026.00
503.56	2058.00
503.91	2072.00
504.26	2067.00
504.61	2091.00
504.96	2122.00
505.31	2116.00
505.66	2171.00
506.01	2149.00
506.36	2146.00
506.71	2215.00
507.06	2183.00
507.41	2227.00
507.75	2254.00
508.10	2252.00
508.45	2271.00
508.80	2266.00
509.15	2297.00
509.50	2293.00
509.85	2318.00
510.20	2304.00
510.55	2321.00
510.90	2383.00
511.24	2366.00
511.59	2404.00
511.94	2399.00
512.29	2445.00
512.64	2398.00
512.99	2440.00
513.34	2486.00
513.68	2438.00
514.03	2514.00
514.38	2501.00
514.73	2538.00
515.08	2534.00
515.43	2569.00
515.77	2548.00
516.12	2627.00
516.47	2612.00
516.82	2633.00
517.17	2607.00
517.52	2654.00
517.86	2653.00
518.21	2678.00
518.56	2688.00
518.91	2693.00
519.26	2731.00
519.60	2728.00
519.95	2725.00
520.30	2792.00
520.65	2779.00
521.00	2770.00
521.34	2791.00
521.69	2812.00
522.04	2803.00
522.39	2850.00
522.73	2856.00
523.08	2866.00
523.43	2882.00
523.78	2871.00
524.12	2886.00
524.47	2927.00
524.82	2921.00
525.17	2950.00
525.51	2959.00
525.86	2944.00
526.21	2961.00
526.56	2988.00
526.90	3005.00
527.25	3006.00
527.60	3018.00
527.94	3034.00
528.29	3032.00
528.64	3029.00
528.99	3033.00
529.33	3086.00
529.68	3072.00
530.03	3128.00
530.37	3097.00
530.72	3128.00
531.07	3140.00
531.41	3160.00
531.76	3124.00
532.11	3169.00
532.45	3181.00
532.80	3169.00
533.15	3186.00
533.49	3224.00
533.84	3203.00
534.19	3209.00
534.53	3236.00
534.88	3262.00
535.23	3216.00
535.57	3268.00
535.92	3279.00
536.26	3291.00
536.61	3282.00
536.96	3285.00
537.30	3342.00
537.65	3324.00
537.99	3347.00
538.34	3340.00
538.69	3328.00
539.03	3362.00
539.38	3352.00
539.72	3389.00
540.07	3344.00
540.42	3382.00
540.76	3390.00
541.11	3399.00
541.45	3414.00
541.80	3429.00
542.14	3385.00
542.49	3433.00
542.84	3456.00
543.18	3448.00
543.53	3435.00
543.87	3502.00
544.22	3453.00
544.56	3480.00
544.91	3467.00
545.25	3470.00
545.60	3500.00
545.94	3474.00
546.29	3524.00
546.63	3526.00
546.98	3533.00
547.32	3567.00
547.67	3567.00
548.01	3575.00
548.36	3524.00
548.70	3576.00
549.05	3588.00
549.39	3568.00
549.74	3609.00
550.08	3602.00
550.43	3615.00
550.77	3586.00
551.12	3611.00
551.46	3613.00
551.81	3618.00
552.15	3672.00
552.50	3651.00
552.84	3660.00
553.18	3648.00
553.53	3700.00
553.87	3665.00
554.22	3633.00
554.56	3650.00
554.91	3664.00
555.25	3662.00
555.59	3656.00
555.94	3669.00
556.28	3726.00
556.63	3706.00
556.97	3707.00
557.32	3700.00
557.66	3695.00
558.00	3698.00
558.35	3663.00
558.69	3701.00
559.03	3711.00
559.38	3745.00
559.72	3753.00
560.07	3733.00
560.41	3724.00
560.75	3742.00
561.10	3700.00
561.44	3744.00
561.78	3779.00
562.13	3747.00
562.47	3780.00
562.81	3788.00
563.16	3789.00
563.50	3766.00
563.84	3810.00
564.19	3769.00
564.53	3766.00
564.87	3763.00
565.22	3788.00
565.56	3765.00
565.90	3797.00
566.25	3790.00
566.59	3818.00
566.93	3810.00
567.28	3777.00
567.62	3822.00
567.96	3818.00
568.30	3787.00
568.65	3771.00
568.99	3837.00
569.33	3820.00
569.68	3804.00
570.02	3815.00
570.36	3788.00
570.70	3785.00
571.05	3803.00
571.39	3825.00
571.73	3830.00
572.07	3820.00
572.42	3821.00
572.76	3789.00
573.10	3833.00
573.44	3822.00
573.78	3822.00
574.13	3790.00
574.47	3820.00
574.81	3782.00
575.15	3852.00
575.49	3802.00
575.84	3814.00
576.18	3811.00
576.52	3786.00
576.86	3758.00
577.20	3727.00
577.55	3707.00
577.89	3696.00
578.23	3648.00
578.57	3647.00
578.91	3609.00
579.25	3613.00
579.60	3553.00
579.94	3605.00
580.28	3616.00
580.62	3633.00
580.96	3609.00
581.30	3622.00
581.65	3648.00
581.99	3631.00
582.33	3657.00
582.67	3675.00
583.01	3701.00
583.35	3747.00
583.69	3789.00
584.03	3751.00
584.37	3777.00
584.72	3727.00
585.06	3786.00
585.40	3776.00
585.74	3738.00
586.08	3730.00
586.42	3741.00
586.76	3739.00
587.10	3686.00
587.44	3725.00
587.78	3717.00
588.12	3699.00
588.46	3677.00
588.80	3685.00
589.15	3694.00
589.49	3693.00
589.83	3657.00
590.17	3693.00
590.51	3668.00
590.85	3638.00
591.19	3674.00
591.53	3654.00
591.87	3655.00
592.21	3629.00
592.55	3616.00
592.89	3660.00
593.23	3630.00
593.57	3634.00
593.91	3613.00
594.25	3617.00
594.59	3604.00
594.93	3586.00
595.27	3558.00
595.61	3566.00
595.95	3577.00
596.29	3555.00
596.63	3588.00
596.97	3561.00
597.31	3538.00
597.65	3534.00
597.99	3548.00
598.32	3530.00
598.66	3530.00
599.00	3534.00
599.34	3517.00
599.68	3477.00
600.02	3512.00
600.36	3520.00
600.70	3477.00
601.04	3468.00
601.38	3491.00
601.72	3492.00
602.06	3488.00
602.40	3450.00
602.73	3418.00
603.07	3466.00
603.41	3409.00
603.75	3445.00
604.09	3436.00
604.43	3453.00
604.77	3414.00
605.11	3438.00
605.45	3383.00
605.78	3384.00
606.12	3413.00
606.46	3393.00
606.80	3372.00
607.14	3394.00
607.48	3346.00
607.81	3368.00
608.15	3344.00
608.49	3331.00
608.83	3346.00
609.17	3337.00
609.51	3312.00
609.84	3339.00
610.18	3328.00
610.52	3337.00
610.86	3322.00
611.20	3301.00
611.53	3239.00
611.87	3264.00
612.21	3283.00
612.55	3251.00
612.89	3253.00
613.22	3262.00
613.56	3227.00
613.90	3214.00
614.24	3244.00
614.57	3229.00
614.91	3215.00
615.25	3197.00
615.59	3202.00
615.92	3189.00
616.26	3185.00
616.60	3197.00
616.94	3174.00
617.27	3164.00
617.61	3175.00
617.95	3147.00
618.29	3136.00
618.62	3132.00
618.96	3140.00
619.30	3155.00
619.63	3120.00
619.97	3127.00
620.31	3081.00
620.64	3085.00
620.98	3097.00
621.32	3085.00
621.66	3070.00
621.99	3052.00
622.33	3050.00
622.67	3043.00
623.00	3043.00
623.34	3033.00
623.68	2995.00
624.01	3039.00
624.35	2996.00
624.68	3031.00
625.02	3008.00
625.36	2993.00
625.69	2950.00
626.03	2968.00
626.37	2977.00
626.70	2912.00
627.04	2913.00
627.37	2957.00
627.71	2900.00
628.05	2905.00
628.38	2893.00
628.72	2879.00
629.05	2893.00
629.39	2910.00
629.73	2872.00
630.06	2857.00
630.40	2846.00
630.73	2818.00
631.07	2807.00
631.41	2821.00
631.74	2808.00
632.08	2814.00
632.41	2775.00
632.75	2790.00
633.08	2760.00
633.42	2746.00
633.75	2740.00
634.09	2703.00
634.42	2709.00
634.76	2698.00
635.09	2723.00
635.43	2687.00
635.76	2691.00
636.10	2651.00
636.43	2676.00
636.77	2626.00
637.10	2627.00
637.44	2636.00
637.77	2600.00
638.11	2614.00
638.44	2611.00
638.78	2597.00
639.11	2582.00
639.45	2573.00
639.78	2559.00
640.12	2555.00
640.45	2524.00
640.79	2520.00
641.12	2496.00
641.46	2515.00
641.79	2510.00
642.12	2478.00
642.46	2476.00
642.79	2484.00
643.13	2458.00
643.46	2434.00
643.80	2448.00
644.13	2426.00
644.46	2403.00
644.80	2402.00
645.13	2401.00
645.47	2378.00
645.80	2353.00
646.13	2339.00
646.47	2340.00
646.80	2338.00
647.13	2348.00
647.47	2299.00
647.80	2269.00
648.14	2321.00
648.47	2273.00
648.80	2248.00
649.14	2248.00
649.47	2264.00
649.80	2221.00
650.14	2240.00
650.47	2213.00
650.80	2181.00
651.14	2196.00
651.47	2202.00
651.80	2165.00
652.14	2161.00
652.47	2160.00
652.80	2139.00
653.14	2149.00
653.47	2160.00
653.80	2118.00
654.13	2097.00
654.47	2099.00
654.80	2086.00
655.13	2103.00
655.47	2067.00
655.80	2077.00
656.13	2059.00
656.46	2020.00
656.80	2036.00
657.13	2022.00
657.46	1981.00
657.79	1999.00
658.13	1986.00
658.46	1971.00
658.79	1961.00
659.12	1978.00
659.45	1958.00
659.79	1930.00
660.12	1930.00
660.45	1912.00
660.78	1899.00
661.12	1903.00
661.45	1907.00
661.78	1901.00
662.11	1889.00
662.44	1864.00
662.77	1842.00
663.11	1864.00
663.44	1832.00
663.77	1839.00
664.10	1821.00
664.43	1805.00
664.77	1782.00
665.10	1780.00
665.43	1797.00
665.76	1774.00
666.09	1788.00
666.42	1781.00
666.75	1755.00
667.08	1740.00
667.42	1744.00
667.75	1726.00
668.08	1725.00
668.41	1708.00
668.74	1684.00
669.07	1699.00
669.40	1728.00
669.73	1692.00
670.06	1680.00
670.40	1670.00
670.73	1652.00
671.06	1668.00
671.39	1645.00
671.72	1631.00
672.05	1622.00
672.38	1616.00
672.71	1623.00
673.04	1606.00
673.37	1591.00
673.70	1587.00
674.03	1593.00
674.36	1570.00
674.69	1577.00
675.02	1537.00
675.35	1559.00
675.68	1551.00
676.01	1554.00
676.34	1521.00
676.67	1546.00
677.00	1523.00
677.33	1511.00
677.66	1518.00
677.99	1501.00
678.32	1516.00
678.65	1496.00
678.98	1477.00
679.31	1483.00
679.64	1482.00
679.97	1474.00
680.30	1466.00
680.63	1445.00
680.96	1432.00
681.29	1438.00
681.62	1442.00
681.95	1438.00
682.28	1408.00
682.61	1396.00
682.94	1384.00
683.27	1405.00
683.60	1403.00
683.93	1397.00
684.25	1363.00
684.58	1389.00
684.91	1371.00
685.24	1373.00
685.57	1362.00
685.90	1341.00
686.23	1360.00
686.56	1342.00
686.89	1359.00
687.21	1327.00
687.54	1329.00
687.87	1318.00
688.20	1304.00
688.53	1331.00
688.86	1294.00
689.19	1308.00
689.51	1308.00
689.84	1289.00
690.17	1273.00
690.50	1270.00
690.83	1290.00
691.16	1262.00
691.48	1223.00
691.81	1256.00
692.14	1254.00
692.47	1252.00
692.80	1236.00
693.12	1231.00
693.45	1202.00
693.78	1237.00
694.11	1223.00
694.44	1216.00
694.76	1216.00
695.09	1210.00
695.42	1202.00
695.75	1191.00
696.07	1187.00
696.40	1183.00
696.73	1171.00
697.06	1153.00
697.38	1161.00
697.71	1171.00
698.04	1160.00
698.37	1139.00
698.69	1165.00
699.02	1134.00
699.35	1152.00
699.67	1137.00
700.00	1145.00
700.33	1115.00
700.66	1111.00
700.98	1125.00
701.31	1129.00
701.64	1107.00
701.96	1100.00
702.29	1100.00
702.62	1101.00
702.94	1085.00
703.27	1096.00
703.60	1067.00
703.92	1077.00
704.25	1077.00
704.58	1058.00
704.90	1065.00
705.23	1067.00
705.56	1057.00
705.88	1064.00
706.21	1035.00
706.53	1059.00
706.86	1035.00
707.19	1028.00
707.51	1040.00
707.84	1033.00
708.16	1009.00
708.49	1026.00
708.82	1015.00
709.14	1010.00
709.47	1009.00
709.79	1008.00
710.12	1001.00
710.45	1005.00
710.77	985.00
711.10	998.00
711.42	969.00
711.75	984.00
712.07	970.00
712.40	994.00
712.72	969.00
713.05	954.00
713.37	949.00
713.70	924.00
714.03	943.00
714.35	943.00
714.68	934.00
715.00	957.00
715.33	937.00
715.65	934.00
715.98	917.00
716.30	923.00
716.63	933.00
716.95	925.00
717.28	890.00
717.60	898.00
717.92	907.00
718.25	903.00
718.57	873.00
718.90	892.00
719.22	883.00
719.55	898.00
719.87	883.00
720.20	864.00
720.52	859.00
720.84	855.00
721.17	835.00
721.49	857.00
721.82	860.00
722.14	845.00
722.47	842.00
722.79	836.00
723.11	832.00
723.44	828.00
723.76	839.00
724.09	824.00
724.41	816.00
724.73	825.00
725.06	831.00
725.38	839.00
725.70	822.00
726.03	817.00
726.35	822.00
726.67	816.00
727.00	816.00
727.32	819.00
727.65	793.00
727.97	790.00
728.29	796.00
728.61	809.00
728.94	819.00
729.26	803.00
729.58	802.00
729.91	793.00
730.23	802.00
730.55	798.00
730.88	805.00
731.20	808.00
731.52	805.00
731.84	796.00
732.17	798.00
732.49	802.00
732.81	810.00
733.14	798.00
733.46	796.00
733.78	779.00
734.10	788.00
734.43	803.00
734.75	794.00
735.07	808.00
735.39	821.00
735.72	789.00
736.04	792.00
736.36	799.00
736.68	813.00
737.00	798.00
737.33	809.00
737.65	815.00
737.97	801.00
738.29	784.00
738.61	804.00
738.94	802.00
739.26	799.00
739.58	784.00
739.90	811.00
740.22	799.00
740.54	795.00
740.87	806.00
741.19	796.00
741.51	805.00
741.83	785.00
742.15	798.00
742.47	803.00
742.79	803.00
743.12	788.00
743.44	801.00
743.76	800.00
744.08	812.00
744.40	795.00
744.72	803.00
745.04	806.00
745.36	821.00
745.68	798.00
746.00	810.00
746.33	807.00
746.65	810.00
746.97	805.00
747.29	809.00
747.61	814.00
747.93	823.00
748.25	823.00
748.57	808.00
748.89	828.00
749.21	813.00
749.53	813.00
749.85	811.00
750.17	819.00
750.49	818.00
750.81	820.00
751.13	816.00
751.45	825.00
751.77	838.00
752.09	818.00
752.41	820.00
752.73	834.00
753.05	819.00
753.37	829.00
753.69	841.00
754.01	837.00
754.33	836.00
754.65	834.00
754.97	840.00
755.29	839.00
755.61	822.00
755.93	847.00
756.25	828.00
756.57	840.00
756.89	850.00
757.21	842.00
757.53	851.00
757.84	850.00
758.16	847.00
758.48	838.00
758.80	843.00
759.12	850.00
759.44	835.00
759.76	846.00
760.08	855.00
760.40	862.00
760.71	847.00
761.03	870.00
761.35	843.00
761.67	847.00
761.99	831.00
762.31	842.00
762.63	857.00
762.94	864.00
763.26	873.00
763.58	868.00
763.90	863.00
764.22	855.00
764.54	892.00
764.85	877.00
765.17	880.00
765.49	863.00
765.81	882.00
766.13	873.00
766.44	876.00
766.76	889.00
767.08	888.00
767.40	883.00
767.72	880.00
768.03	901.00
768.35	880.00
768.67	874.00
768.99	869.00
769.30	911.00
769.62	878.00
769.94	877.00
770.26	894.00
770.57	879.00
770.89	902.00
771.21	890.00
771.53	901.00
771.84	916.00
772.16	914.00
772.48	902.00
772.79	910.00
773.11	915.00
773.43	921.00
773.75	897.00
774.06	919.00
774.38	898.00
774.70	913.00
775.01	895.00
775.33	926.00
775.65	892.00
775.96	896.00
776.28	912.00
776.59	908.00
776.91	904.00
777.23	919.00
777.54	916.00
777.86	912.00
778.18	910.00
778.49	919.00
778.81	931.00
779.13	925.00
779.44	917.00
779.76	924.00
780.07	945.00
780.39	921.00
780.71	913.00
781.02	926.00
781.34	932.00
781.65	948.00
781.97	912.00
782.28	943.00
782.60	956.00
782.91	924.00
783.23	926.00
783.55	943.00
783.86	924.00
784.18	930.00
784.49	931.00
784.81	926.00
785.12	931.00
785.44	937.00
785.75	944.00
786.07	941.00
786.38	955.00
786.70	950.00
787.01	948.00
787.33	961.00
787.64	935.00
787.96	948.00
788.27	992.00
788.59	957.00
788.90	974.00
789.22	949.00
789.53	969.00
789.85	979.00
790.16	977.00
790.47	992.00
790.79	976.00
791.10	975.00
791.42	978.00
791.73	983.00
792.05	1000.00
792.36	996.00
792.67	997.00
792.99	1003.00
793.30	1025.00
793.62	996.00
793.93	1003.00
794.24	1025.00
794.56	996.00
794.87	1012.00
795.18	1031.00
795.50	1032.00
795.81	1032.00
796.13	1045.00
796.44	1038.00
796.75	1019.00
797.07	1043.00
797.38	1067.00
797.69	1042.00
798.01	1021.00
798.32	1050.00
798.63	1046.00
798.95	1072.00
799.26	1061.00
799.57	1057.00
799.89	1055.00
800.20	1061.00
800.51	1076.00
800.82	1090.00
801.14	1063.00
801.45	1086.00
801.76	1098.00
802.08	1080.00
802.39	1091.00
802.70	1078.00
803.01	1089.00
803.33	1084.00
803.64	1094.00
803.95	1126.00
804.26	1107.00
804.57	1086.00
804.89	1124.00
805.20	1127.00
805.51	1129.00
805.82	1101.00
806.14	1115.00
806.45	1124.00
806.76	1132.00
807.07	1125.00
807.38	1146.00
807.70	1129.00
808.01	1144.00
808.32	1127.00
808.63	1135.00
808.94	1142.00
809.25	1141.00
809.57	1156.00
809.88	1133.00
810.19	1136.00
810.50	1159.00
810.81	1159.00
811.12	1155.00
811.43	1147.00
811.75	1159.00
812.06	1153.00
812.37	1159.00
812.68	1155.00
812.99	1162.00
813.30	1164.00
813.61	1134.00
813.92	1166.00
814.23	1173.00
814.54	1164.00
814.85	1166.00
815.17	1173.00
815.48	1170.00
815.79	1172.00
816.10	1167.00
816.41	1197.00
816.72	1167.00
817.03	1178.00
817.34	1188.00
817.65	1170.00
817.96	1191.00
818.27	1209.00
818.58	1184.00
818.89	1206.00
819.20	1196.00
819.51	1230.00
819.82	1208.00
820.13	1211.00
820.44	1204.00
820.75	1194.00
821.06	1209.00
821.37	1211.00
821.68	1228.00
821.99	1236.00
822.30	1218.00
822.61	1202.00
822.92	1234.00
823.23	1238.00
823.54	1255.00
823.85	1252.00
824.15	1231.00
824.46	1244.00
824.77	1236.00
825.08	1237.00
825.39	1230.00
825.70	1234.00
826.01	1267.00
826.32	1266.00
826.63	1263.00
826.94	1257.00
827.24	1258.00
827.55	1266.00
827.86	1278.00
828.17	1278.00
828.48	1276.00
828.79	1295.00
829.10	1297.00
829.41	1300.00
829.71	1293.00
830.02	1299.00
830.33	1297.00
830.64	1328.00
830.95	1301.00
831.25	1310.00
831.56	1312.00
831.87	1322.00
832.18	1305.00
832.49	1320.00
832.80	1314.00
833.10	1322.00
833.41	1339.00
833.72	1325.00
834.03	1354.00
834.33	1344.00
834.64	1329.00
834.95	1326.00
835.26	1337.00
835.56	1375.00
835.87	1330.00
836.18	1350.00
836.49	1380.00
836.79	1365.00
837.10	1359.00
837.41	1358.00
837.72	1375.00
838.02	1347.00
838.33	1375.00
838.64	1360.00
838.94	1351.00
839.25	1369.00
839.56	1376.00
839.86	1400.00
840.17	1385.00
840.48	1430.00
840.78	1411.00
841.09	1428.00
841.40	1431.00
841.70	1403.00
842.01	1426.00
842.32	1422.00
842.62	1443.00
842.93	1446.00
843.24	1419.00
843.54	1440.00
843.85	1454.00
844.15	1437.00
844.46	1435.00
844.77	1437.00
845.07	1461.00
845.38	1467.00
845.68	1461.00
845.99	1446.00
846.30	1489.00
846.60	1508.00
846.91	1482.00
847.21	1494.00
847.52	1488.00
847.82	1508.00
848.13	1451.00
848.43	1477.00
848.74	1513.00
849.05	1522.00
849.35	1493.00
849.66	1512.00
849.96	1527.00
850.27	1513.00
850.57	1532.00
850.88	1516.00
851.18	1528.00
851.49	1507.00
851.79	1529.00
852.10	1542.00
852.40	1554.00
852.71	1554.00
853.01	1554.00
853.32	1553.00
853.62	1555.00
853.92	1545.00
854.23	1566.00
854.53	1584.00
854.84	1570.00
855.14	1547.00
855.45	1580.00
855.75	1568.00
856.05	1589.00
856.36	1582.00
856.66	1585.00
856.97	1580.00
857.27	1580.00
857.57	1598.00
857.88	1594.00
858.18	1618.00
858.49	1592.00
858.79	1590.00
859.09	1584.00
859.40	1608.00
859.70	1602.00
860.00	1632.00
860.31	1626.00
860.61	1619.00
860.92	1631.00
861.22	1643.00
861.52	1632.00
861.82	1600.00
862.13	1639.00
862.43	1627.00
862.73	1615.00
863.04	1609.00
863.34	1628.00
863.64	1642.00
863.95	1634.00
864.25	1635.00
864.55	1635.00
864.85	1652.00
865.16	1663.00
865.46	1657.00
865.76	1643.00
866.07	1668.00
866.37	1643.00
866.67	1635.00
866.97	1642.00
867.27	1662.00
867.58	1637.00
867.88	1660.00
868.18	1652.00
868.48	1654.00
868.79	1662.00
869.09	1661.00
869.39	1639.00
869.69	1645.00
869.99	1637.00
870.30	1649.00
870.60	1619.00
870.90	1663.00
871.20	1622.00
871.50	1630.00
871.80	1631.00
872.11	1618.00
872.41	1626.00
872.71	1585.00
873.01	1622.00
873.31	1602.00
873.61	1596.00
873.91	1604.00
874.21	1607.00
874.52	1603.00
874.82	1590.00
875.12	1589.00
875.42	1600.00
875.72	1597.00
876.02	1578.00
876.32	1590.00
876.62	1573.00
876.92	1569.00
877.22	1584.00
877.52	1565.00
877.83	1566.00
878.13	1577.00
878.43	1569.00
878.73	1591.00
879.03	1578.00
879.33	1546.00
879.63	1594.00
879.93	1590.00
880.23	1557.00
880.53	1590.00
880.83	1579.00
881.13	1577.00
881.43	1585.00
881.73	1600.00
882.03	1588.00
882.33	1599.00
882.63	1616.00
882.93	1615.00
883.23	1596.00
883.53	1609.00
883.83	1592.00
884.13	1618.00
884.42	1599.00
884.72	1615.00
885.02	1615.00
885.32	1632.00
885.62	1606.00
885.92	1620.00
886.22	1613.00
886.52	1632.00
886.82	1656.00
887.12	1674.00
887.42	1645.00
887.72	1656.00
888.01	1655.00
888.31	1664.00
888.61	1665.00
888.91	1674.00
889.21	1667.00
889.51	1659.00
889.81	1684.00
890.10	1689.00
890.40	1674.00
890.70	1689.00
891.00	1636.00
891.30	1713.00
891.60	1692.00
891.89	1698.00
892.19	1702.00
892.49	1680.00
892.79	1672.00
893.09	1703.00
893.38	1696.00
893.68	1661.00
893.98	1708.00
894.28	1682.00
894.58	1700.00
894.87	1690.00
895.17	1699.00
895.47	1699.00
895.77	1701.00
896.06	1665.00
896.36	1685.00
896.66	1695.00
896.96	1673.00
897.25	1684.00
897.55	1710.00
897.85	1713.00
898.14	1682.00
898.44	1680.00
898.74	1701.00
899.04	1682.00
899.33	1661.00
899.63	1674.00
899.93	1659.00
900.22	1701.00
900.52	1680.00
900.82	1669.00
901.11	1683.00
901.41	1673.00
901.71	1677.00
902.00	1629.00
902.30	1666.00
902.59	1653.00
902.89	1627.00
903.19	1635.00
903.48	1612.00
903.78	1620.00
904.08	1628.00
904.37	1633.00
904.67	1625.00
904.96	1618.00
905.26	1625.00
905.55	1589.00
905.85	1584.00
906.15	1600.00
906.44	1588.00
906.74	1592.00
907.03	1563.00
907.33	1566.00
907.62	1564.00
907.92	1582.00
908.21	1559.00
908.51	1564.00
908.80	1547.00
909.10	1546.00
909.40	1515.00
909.69	1510.00
909.99	1515.00
910.28	1508.00
910.57	1527.00
910.87	1531.00
911.16	1509.00
911.46	1497.00
911.75	1488.00
912.05	1454.00
912.34	1498.00
912.64	1473.00
912.93	1460.00
913.23	1452.00
913.52	1472.00
913.82	1435.00
914.11	1456.00
914.40	1436.00
914.70	1408.00
914.99	1426.00
915.29	1398.00
915.58	1378.00
915.87	1382.00
916.17	1371.00
916.46	1392.00
916.76	1385.00
917.05	1349.00
917.34	1364.00
917.64	1341.00
917.93	1332.00
918.22	1303.00
918.52	1306.00
918.81	1304.00
919.10	1279.00
919.40	1270.00
919.69	1282.00
919.98	1266.00
920.28	1256.00
920.57	1233.00
920.86	1250.00
921.16	1213.00
921.45	1209.00
921.74	1215.00
922.04	1190.00
922.33	1200.00
922.62	1196.00
922.91	1155.00
923.21	1147.00
923.50	1129.00
923.79	1139.00
924.08	1138.00
924.38	1123.00
924.67	1108.00
924.96	1096.00
925.25	1094.00
925.55	1074.00
925.84	1069.00
926.13	1036.00
926.42	1033.00
926.71	1037.00
927.01	1012.00
927.30	1008.00
927.59	993.00
927.88	996.00
928.17	971.00
928.46	973.00
928.76	930.00
929.05	920.00
929.34	917.00
929.63	910.00
929.92	908.00
930.21	902.00
930.50	868.00
930.80	876.00
931.09	851.00
931.38	825.00
931.67	811.00
931.96	824.00
932.25	792.00
932.54	787.00
932.83	765.00
933.12	744.00
933.41	714.00
933.71	699.00
934.00	662.00
934.29	663.00
934.58	645.00
934.87	624.00
935.16	619.00
935.45	585.00
935.74	562.00
936.03	546.00
936.32	524.00
936.61	509.00
936.90	501.00
937.19	470.00
937.48	457.00
937.77	434.00
938.06	414.00
938.35	413.00
938.64	374.00
938.93	370.00
939.22	358.00
939.51	338.00
939.80	322.00
940.09	302.00
940.38	301.00
940.67	289.00
940.96	284.00
941.25	273.00
941.53	264.00
941.82	260.00
942.11	255.00
942.40	251.00
942.69	247.00
942.98	235.00
943.27	234.00
943.56	232.00
943.85	230.00
944.14	230.00
944.42	225.00
944.71	221.00
945.00	221.00
945.29	227.00
945.58	220.00
945.87	224.00
946.16	228.00
946.44	220.00
946.73	222.00
947.02	236.00
947.31	227.00
947.60	227.00
947.89	244.00
948.17	245.00
948.46	246.00
948.75	241.00
949.04	248.00
949.32	238.00
949.61	250.00
949.90	256.00
950.19	255.00
950.48	251.00
950.76	269.00
951.05	268.00
951.34	282.00
951.63	276.00
951.91	288.00
952.20	304.00
952.49	295.00
952.77	289.00
953.06	301.00
953.35	306.00
953.64	301.00
953.92	293.00
954.21	309.00
954.50	318.00
954.78	327.00
955.07	328.00
955.36	328.00
955.64	329.00
955.93	333.00
956.22	340.00
956.50	354.00
956.79	343.00
957.08	341.00
957.36	346.00
957.65	349.00
957.93	360.00
958.22	347.00
958.51	353.00
958.79	357.00
959.08	358.00
959.36	367.00
959.65	356.00
959.94	364.00
960.22	368.00
960.51	364.00
960.79	377.00
961.08	365.00
961.36	365.00
961.65	375.00
961.94	369.00
962.22	379.00
962.51	372.00
962.79	387.00
963.08	379.00
963.36	385.00
963.65	376.00
963.93	373.00
964.22	385.00
964.50	379.00
964.79	392.00
965.07	383.00
965.36	382.00
965.64	382.00
965.93	374.00
966.21	381.00
966.49	384.00
966.78	383.00
967.06	379.00
967.35	364.00
967.63	367.00
967.92	377.00
968.20	371.00
968.48	371.00
968.77	383.00
969.05	383.00
969.34	380.00
969.62	374.00
969.90	376.00
970.19	372.00
970.47	388.00
970.76	376.00
971.04	366.00
971.32	370.00
971.61	366.00
971.89	363.00
972.17	362.00
972.46	367.00
972.74	366.00
973.02	365.00
973.31	365.00
973.59	361.00
973.87	358.00
974.16	359.00
974.44	364.00
974.72	357.00
975.00	349.00
975.29	358.00
975.57	355.00
975.85	355.00
976.14	360.00
976.42	350.00
976.70	340.00
976.98	359.00
977.27	345.00
977.55	343.00
977.83	340.00
978.11	334.00
978.39	341.00
978.68	330.00
978.96	335.00
979.24	332.00
979.52	331.00
979.81	331.00
980.09	334.00
980.37	324.00
980.65	328.00
980.93	325.00
981.21	325.00
981.50	333.00
981.78	322.00
982.06	313.00
982.34	318.00
982.62	318.00
982.90	315.00
983.18	317.00
983.47	314.00
983.75	312.00
984.03	303.00
984.31	304.00
984.59	298.00
984.87	298.00
985.15	302.00
985.43	291.00
985.71	284.00
985.99	289.00
986.27	289.00
986.55	293.00
986.84	282.00
987.12	287.00
987.40	284.00
987.68	295.00
987.96	289.00
988.24	268.00
988.52	275.00
988.80	280.00
989.08	271.00
989.36	284.00
989.64	270.00
989.92	265.00
990.20	263.00
990.48	256.00
990.76	268.00
991.04	260.00
991.32	258.00
991.60	265.00
991.88	248.00
992.16	251.00
992.43	255.00
992.71	246.00
992.99	245.00
993.27	248.00
993.55	235.00
993.83	234.00
994.11	251.00
994.39	246.00
994.67	240.00
994.95	239.00
995.23	231.00
995.50	235.00
995.78	230.00
996.06	230.00
996.34	218.00
996.62	221.00
996.90	224.00
997.18	229.00
997.45	212.00
997.73	219.00
998.01	222.00
998.29	210.00
998.57	221.00
998.85	222.00
999.12	210.00
999.40	209.00
999.68	210.00
999.96	208.00
1000.24	209.00
1000.51	203.00
1000.79	210.00
1001.07	204.00
1001.35	202.00
1001.62	191.00
1001.90	201.00
1002.18	184.00
1002.46	195.00
1002.73	190.00
1003.01	187.00
1003.29	193.00
1003.56	179.00
1003.84	178.00
1004.12	186.00
1004.40	176.00
1004.67	185.00
1004.95	177.00
>>>>>End Processed Spectral Data<<<<<
