SpectraSuite Data File
++++++++++++++++++++++++++++++++++++
Date: Fri Jul 12 17:19:27 ART 2024
User: Javier
Dark Spectrum Present: Yes
Reference Spectrum Present: No
Number of Sampled Component Spectra: 1
Spectrometers: ADUD7991
Integration Time (usec): 15000 (ADUD7991)
Spectra Averaged: 1 (ADUD7991)
Boxcar Smoothing: 0 (ADUD7991)
Correct for Electrical Dark: No (ADUD7991)
Strobe/Lamp Enabled: No (ADUD7991)
Correct for Detector Non-linearity: No (ADUD7991)
Correct for Stray Light: No (ADUD7991)
Number of Pixels in Processed Spectrum: 2048
>>>>>Begin Processed Spectral Data<<<<<
338.97	0.00
339.33	0.00
339.70	3.00
340.06	6.00
340.42	3.00
340.79	-3.00
341.15	-5.00
341.52	-6.00
341.88	-7.00
342.24	4.00
342.61	0.00
342.97	4.00
343.33	0.00
343.70	3.00
344.06	5.00
344.43	0.00
344.79	-7.00
345.15	-11.00
345.52	-3.00
345.88	-4.00
346.24	2.00
346.61	6.00
346.97	0.00
347.33	1.00
347.70	-1.00
348.06	-2.00
348.42	-7.00
348.79	4.00
349.15	-3.00
349.51	-1.00
349.88	2.00
350.24	1.00
350.60	-1.00
350.97	0.00
351.33	4.00
351.69	6.00
352.05	2.00
352.42	3.00
352.78	2.00
353.14	-1.00
353.51	-7.00
353.87	-2.00
354.23	-1.00
354.60	1.00
354.96	3.00
355.32	0.00
355.68	-3.00
356.05	-1.00
356.41	4.00
356.77	8.00
357.13	-1.00
357.50	-9.00
357.86	5.00
358.22	2.00
358.58	6.00
358.95	1.00
359.31	2.00
359.67	-6.00
360.03	-3.00
360.40	7.00
360.76	1.00
361.12	3.00
361.48	-4.00
361.85	0.00
362.21	6.00
362.57	-3.00
362.93	-5.00
363.29	-1.00
363.66	6.00
364.02	2.00
364.38	2.00
364.74	3.00
365.10	-5.00
365.47	3.00
365.83	-3.00
366.19	9.00
366.55	-2.00
366.91	8.00
367.28	5.00
367.64	7.00
368.00	3.00
368.36	-3.00
368.72	0.00
369.08	1.00
369.45	0.00
369.81	8.00
370.17	6.00
370.53	0.00
370.89	5.00
371.25	-3.00
371.62	6.00
371.98	4.00
372.34	4.00
372.70	4.00
373.06	3.00
373.42	2.00
373.78	10.00
374.14	1.00
374.51	2.00
374.87	0.00
375.23	4.00
375.59	2.00
375.95	5.00
376.31	4.00
376.67	-1.00
377.03	-1.00
377.39	-3.00
377.76	-6.00
378.12	-1.00
378.48	-1.00
378.84	5.00
379.20	-2.00
379.56	0.00
379.92	3.00
380.28	-7.00
380.64	3.00
381.00	-5.00
381.36	1.00
381.72	6.00
382.08	-2.00
382.45	8.00
382.81	1.00
383.17	5.00
383.53	4.00
383.89	-2.00
384.25	0.00
384.61	0.00
384.97	0.00
385.33	1.00
385.69	-1.00
386.05	3.00
386.41	1.00
386.77	2.00
387.13	2.00
387.49	1.00
387.85	-5.00
388.21	3.00
388.57	1.00
388.93	5.00
389.29	10.00
389.65	-4.00
390.01	7.00
390.37	-4.00
390.73	8.00
391.09	6.00
391.45	-1.00
391.81	6.00
392.17	4.00
392.53	1.00
392.89	14.00
393.25	1.00
393.61	10.00
393.97	8.00
394.33	6.00
394.69	7.00
395.05	0.00
395.41	11.00
395.77	11.00
396.12	8.00
396.48	11.00
396.84	7.00
397.20	14.00
397.56	12.00
397.92	17.00
398.28	20.00
398.64	13.00
399.00	21.00
399.36	10.00
399.72	20.00
400.08	18.00
400.44	21.00
400.79	26.00
401.15	27.00
401.51	22.00
401.87	17.00
402.23	22.00
402.59	20.00
402.95	18.00
403.31	25.00
403.67	29.00
404.02	24.00
404.38	39.00
404.74	28.00
405.10	28.00
405.46	36.00
405.82	37.00
406.18	42.00
406.53	36.00
406.89	32.00
407.25	36.00
407.61	41.00
407.97	47.00
408.33	38.00
408.69	46.00
409.04	42.00
409.40	45.00
409.76	45.00
410.12	46.00
410.48	50.00
410.83	50.00
411.19	54.00
411.55	57.00
411.91	62.00
412.27	63.00
412.63	66.00
412.98	56.00
413.34	58.00
413.70	71.00
414.06	68.00
414.41	63.00
414.77	72.00
415.13	71.00
415.49	61.00
415.85	77.00
416.20	71.00
416.56	69.00
416.92	81.00
417.28	83.00
417.63	81.00
417.99	75.00
418.35	76.00
418.71	83.00
419.06	89.00
419.42	86.00
419.78	97.00
420.14	90.00
420.49	88.00
420.85	92.00
421.21	97.00
421.57	98.00
421.92	94.00
422.28	101.00
422.64	98.00
422.99	108.00
423.35	109.00
423.71	114.00
424.06	109.00
424.42	111.00
424.78	121.00
425.14	110.00
425.49	122.00
425.85	117.00
426.21	127.00
426.56	125.00
426.92	129.00
427.28	130.00
427.63	138.00
427.99	141.00
428.35	148.00
428.70	149.00
429.06	137.00
429.42	151.00
429.77	138.00
430.13	150.00
430.49	149.00
430.84	159.00
431.20	159.00
431.55	161.00
431.91	161.00
432.27	159.00
432.62	159.00
432.98	161.00
433.34	179.00
433.69	174.00
434.05	175.00
434.40	179.00
434.76	182.00
435.12	185.00
435.47	189.00
435.83	192.00
436.18	192.00
436.54	195.00
436.90	194.00
437.25	200.00
437.61	210.00
437.96	206.00
438.32	204.00
438.67	214.00
439.03	222.00
439.39	218.00
439.74	222.00
440.10	232.00
440.45	239.00
440.81	223.00
441.16	218.00
441.52	235.00
441.87	249.00
442.23	251.00
442.59	239.00
442.94	237.00
443.30	249.00
443.65	246.00
444.01	271.00
444.36	263.00
444.72	254.00
445.07	263.00
445.43	270.00
445.78	275.00
446.14	272.00
446.49	270.00
446.85	282.00
447.20	283.00
447.56	274.00
447.91	294.00
448.27	296.00
448.62	310.00
448.98	295.00
449.33	300.00
449.69	303.00
450.04	309.00
450.39	316.00
450.75	317.00
451.10	316.00
451.46	322.00
451.81	326.00
452.17	323.00
452.52	337.00
452.88	326.00
453.23	342.00
453.58	327.00
453.94	342.00
454.29	343.00
454.65	344.00
455.00	361.00
455.36	361.00
455.71	359.00
456.06	344.00
456.42	363.00
456.77	372.00
457.13	369.00
457.48	389.00
457.83	396.00
458.19	385.00
458.54	389.00
458.90	370.00
459.25	405.00
459.60	405.00
459.96	405.00
460.31	409.00
460.66	414.00
461.02	411.00
461.37	416.00
461.73	425.00
462.08	430.00
462.43	425.00
462.79	420.00
463.14	420.00
463.49	421.00
463.85	434.00
464.20	449.00
464.55	459.00
464.91	455.00
465.26	469.00
465.61	479.00
465.97	465.00
466.32	453.00
466.67	486.00
467.03	489.00
467.38	489.00
467.73	505.00
468.08	503.00
468.44	506.00
468.79	480.00
469.14	495.00
469.50	518.00
469.85	530.00
470.20	535.00
470.55	546.00
470.91	533.00
471.26	542.00
471.61	570.00
471.97	561.00
472.32	567.00
472.67	559.00
473.02	580.00
473.38	590.00
473.73	593.00
474.08	598.00
474.43	615.00
474.78	607.00
475.14	610.00
475.49	632.00
475.84	650.00
476.19	648.00
476.55	648.00
476.90	647.00
477.25	678.00
477.60	669.00
477.95	679.00
478.31	697.00
478.66	716.00
479.01	727.00
479.36	730.00
479.71	723.00
480.07	738.00
480.42	764.00
480.77	769.00
481.12	778.00
481.47	780.00
481.82	777.00
482.18	788.00
482.53	790.00
482.88	816.00
483.23	816.00
483.58	810.00
483.93	854.00
484.29	830.00
484.64	862.00
484.99	878.00
485.34	867.00
485.69	867.00
486.04	893.00
486.39	888.00
486.74	894.00
487.10	941.00
487.45	910.00
487.80	943.00
488.15	954.00
488.50	967.00
488.85	950.00
489.20	956.00
489.55	959.00
489.90	976.00
490.26	976.00
490.61	987.00
490.96	999.00
491.31	1005.00
491.66	1022.00
492.01	1034.00
492.36	1017.00
492.71	1039.00
493.06	1046.00
493.41	1024.00
493.76	1045.00
494.11	1051.00
494.46	1063.00
494.81	1089.00
495.16	1095.00
495.51	1115.00
495.86	1092.00
496.21	1095.00
496.56	1122.00
496.91	1130.00
497.27	1136.00
497.62	1127.00
497.97	1157.00
498.32	1143.00
498.67	1150.00
499.02	1149.00
499.37	1175.00
499.72	1174.00
500.07	1185.00
500.42	1204.00
500.77	1202.00
501.11	1206.00
501.46	1213.00
501.81	1201.00
502.16	1223.00
502.51	1207.00
502.86	1245.00
503.21	1240.00
503.56	1263.00
503.91	1257.00
504.26	1255.00
504.61	1261.00
504.96	1282.00
505.31	1269.00
505.66	1299.00
506.01	1288.00
506.36	1288.00
506.71	1316.00
507.06	1303.00
507.41	1315.00
507.75	1333.00
508.10	1336.00
508.45	1341.00
508.80	1345.00
509.15	1342.00
509.50	1353.00
509.85	1375.00
510.20	1386.00
510.55	1385.00
510.90	1400.00
511.24	1389.00
511.59	1435.00
511.94	1402.00
512.29	1413.00
512.64	1419.00
512.99	1452.00
513.34	1441.00
513.68	1434.00
514.03	1470.00
514.38	1475.00
514.73	1467.00
515.08	1469.00
515.43	1487.00
515.77	1489.00
516.12	1485.00
516.47	1503.00
516.82	1524.00
517.17	1510.00
517.52	1525.00
517.86	1540.00
518.21	1543.00
518.56	1546.00
518.91	1554.00
519.26	1562.00
519.60	1542.00
519.95	1584.00
520.30	1582.00
520.65	1569.00
521.00	1591.00
521.34	1608.00
521.69	1611.00
522.04	1609.00
522.39	1611.00
522.73	1631.00
523.08	1632.00
523.43	1650.00
523.78	1642.00
524.12	1617.00
524.47	1620.00
524.82	1641.00
525.17	1663.00
525.51	1668.00
525.86	1663.00
526.21	1697.00
526.56	1693.00
526.90	1711.00
527.25	1691.00
527.60	1713.00
527.94	1706.00
528.29	1707.00
528.64	1706.00
528.99	1717.00
529.33	1742.00
529.68	1743.00
530.03	1734.00
530.37	1726.00
530.72	1752.00
531.07	1776.00
531.41	1771.00
531.76	1764.00
532.11	1779.00
532.45	1787.00
532.80	1763.00
533.15	1788.00
533.49	1833.00
533.84	1797.00
534.19	1816.00
534.53	1787.00
534.88	1817.00
535.23	1829.00
535.57	1839.00
535.92	1861.00
536.26	1847.00
536.61	1850.00
536.96	1845.00
537.30	1882.00
537.65	1852.00
537.99	1845.00
538.34	1889.00
538.69	1880.00
539.03	1881.00
539.38	1891.00
539.72	1913.00
540.07	1919.00
540.42	1914.00
540.76	1909.00
541.11	1908.00
541.45	1919.00
541.80	1939.00
542.14	1938.00
542.49	1931.00
542.84	1957.00
543.18	1979.00
543.53	1963.00
543.87	1956.00
544.22	1952.00
544.56	2012.00
544.91	1972.00
545.25	1968.00
545.60	2014.00
545.94	2001.00
546.29	2007.00
546.63	2001.00
546.98	2022.00
547.32	2020.00
547.67	2029.00
548.01	2050.00
548.36	2034.00
548.70	2012.00
549.05	2034.00
549.39	2033.00
549.74	2056.00
550.08	2070.00
550.43	2033.00
550.77	2052.00
551.12	2068.00
551.46	2095.00
551.81	2062.00
552.15	2103.00
552.50	2094.00
552.84	2128.00
553.18	2112.00
553.53	2143.00
553.87	2128.00
554.22	2119.00
554.56	2111.00
554.91	2168.00
555.25	2146.00
555.59	2156.00
555.94	2148.00
556.28	2173.00
556.63	2140.00
556.97	2173.00
557.32	2173.00
557.66	2177.00
558.00	2165.00
558.35	2179.00
558.69	2186.00
559.03	2216.00
559.38	2202.00
559.72	2218.00
560.07	2211.00
560.41	2202.00
560.75	2217.00
561.10	2215.00
561.44	2229.00
561.78	2240.00
562.13	2204.00
562.47	2238.00
562.81	2255.00
563.16	2266.00
563.50	2258.00
563.84	2253.00
564.19	2268.00
564.53	2273.00
564.87	2264.00
565.22	2268.00
565.56	2289.00
565.90	2285.00
566.25	2294.00
566.59	2339.00
566.93	2297.00
567.28	2288.00
567.62	2280.00
567.96	2299.00
568.30	2338.00
568.65	2323.00
568.99	2346.00
569.33	2327.00
569.68	2310.00
570.02	2352.00
570.36	2352.00
570.70	2327.00
571.05	2352.00
571.39	2369.00
571.73	2372.00
572.07	2351.00
572.42	2369.00
572.76	2362.00
573.10	2373.00
573.44	2371.00
573.78	2389.00
574.13	2391.00
574.47	2396.00
574.81	2390.00
575.15	2400.00
575.49	2392.00
575.84	2389.00
576.18	2381.00
576.52	2401.00
576.86	2394.00
577.20	2360.00
577.55	2348.00
577.89	2366.00
578.23	2320.00
578.57	2299.00
578.91	2304.00
579.25	2290.00
579.60	2268.00
579.94	2294.00
580.28	2303.00
580.62	2324.00
580.96	2337.00
581.30	2349.00
581.65	2384.00
581.99	2356.00
582.33	2412.00
582.67	2433.00
583.01	2447.00
583.35	2493.00
583.69	2468.00
584.03	2468.00
584.37	2489.00
584.72	2478.00
585.06	2474.00
585.40	2504.00
585.74	2495.00
586.08	2480.00
586.42	2475.00
586.76	2518.00
587.10	2511.00
587.44	2491.00
587.78	2478.00
588.12	2520.00
588.46	2513.00
588.80	2530.00
589.15	2504.00
589.49	2513.00
589.83	2484.00
590.17	2509.00
590.51	2531.00
590.85	2479.00
591.19	2529.00
591.53	2491.00
591.87	2550.00
592.21	2513.00
592.55	2510.00
592.89	2525.00
593.23	2512.00
593.57	2526.00
593.91	2534.00
594.25	2564.00
594.59	2553.00
594.93	2515.00
595.27	2523.00
595.61	2542.00
595.95	2563.00
596.29	2537.00
596.63	2556.00
596.97	2552.00
597.31	2563.00
597.65	2569.00
597.99	2581.00
598.32	2552.00
598.66	2550.00
599.00	2590.00
599.34	2553.00
599.68	2541.00
600.02	2594.00
600.36	2574.00
600.70	2553.00
601.04	2595.00
601.38	2605.00
601.72	2582.00
602.06	2564.00
602.40	2584.00
602.73	2595.00
603.07	2589.00
603.41	2590.00
603.75	2601.00
604.09	2630.00
604.43	2630.00
604.77	2611.00
605.11	2632.00
605.45	2608.00
605.78	2628.00
606.12	2627.00
606.46	2601.00
606.80	2589.00
607.14	2651.00
607.48	2618.00
607.81	2617.00
608.15	2608.00
608.49	2624.00
608.83	2665.00
609.17	2635.00
609.51	2603.00
609.84	2648.00
610.18	2659.00
610.52	2646.00
610.86	2660.00
611.20	2665.00
611.53	2617.00
611.87	2629.00
612.21	2654.00
612.55	2647.00
612.89	2673.00
613.22	2672.00
613.56	2638.00
613.90	2664.00
614.24	2655.00
614.57	2653.00
614.91	2663.00
615.25	2676.00
615.59	2683.00
615.92	2676.00
616.26	2663.00
616.60	2676.00
616.94	2712.00
617.27	2671.00
617.61	2709.00
617.95	2653.00
618.29	2654.00
618.62	2703.00
618.96	2695.00
619.30	2706.00
619.63	2688.00
619.97	2681.00
620.31	2676.00
620.64	2730.00
620.98	2701.00
621.32	2688.00
621.66	2727.00
621.99	2725.00
622.33	2692.00
622.67	2723.00
623.00	2716.00
623.34	2718.00
623.68	2707.00
624.01	2716.00
624.35	2728.00
624.68	2720.00
625.02	2726.00
625.36	2723.00
625.69	2719.00
626.03	2760.00
626.37	2721.00
626.70	2752.00
627.04	2720.00
627.37	2728.00
627.71	2706.00
628.05	2734.00
628.38	2728.00
628.72	2728.00
629.05	2713.00
629.39	2734.00
629.73	2756.00
630.06	2767.00
630.40	2749.00
630.73	2733.00
631.07	2750.00
631.41	2724.00
631.74	2725.00
632.08	2724.00
632.41	2767.00
632.75	2725.00
633.08	2755.00
633.42	2753.00
633.75	2702.00
634.09	2724.00
634.42	2704.00
634.76	2725.00
635.09	2756.00
635.43	2726.00
635.76	2732.00
636.10	2726.00
636.43	2706.00
636.77	2728.00
637.10	2729.00
637.44	2726.00
637.77	2733.00
638.11	2718.00
638.44	2692.00
638.78	2713.00
639.11	2722.00
639.45	2719.00
639.78	2739.00
640.12	2706.00
640.45	2712.00
640.79	2716.00
641.12	2704.00
641.46	2711.00
641.79	2745.00
642.12	2695.00
642.46	2696.00
642.79	2720.00
643.13	2705.00
643.46	2707.00
643.80	2708.00
644.13	2708.00
644.46	2722.00
644.80	2700.00
645.13	2709.00
645.47	2690.00
645.80	2685.00
646.13	2664.00
646.47	2689.00
646.80	2668.00
647.13	2699.00
647.47	2673.00
647.80	2654.00
648.14	2702.00
648.47	2697.00
648.80	2668.00
649.14	2669.00
649.47	2685.00
649.80	2628.00
650.14	2663.00
650.47	2643.00
650.80	2671.00
651.14	2642.00
651.47	2671.00
651.80	2648.00
652.14	2629.00
652.47	2652.00
652.80	2664.00
653.14	2649.00
653.47	2670.00
653.80	2622.00
654.13	2600.00
654.47	2633.00
654.80	2632.00
655.13	2632.00
655.47	2626.00
655.80	2630.00
656.13	2633.00
656.46	2622.00
656.80	2641.00
657.13	2626.00
657.46	2631.00
657.79	2635.00
658.13	2613.00
658.46	2614.00
658.79	2608.00
659.12	2601.00
659.45	2628.00
659.79	2586.00
660.12	2613.00
660.45	2590.00
660.78	2616.00
661.12	2611.00
661.45	2610.00
661.78	2574.00
662.11	2580.00
662.44	2572.00
662.77	2565.00
663.11	2590.00
663.44	2590.00
663.77	2547.00
664.10	2545.00
664.43	2582.00
664.77	2545.00
665.10	2581.00
665.43	2550.00
665.76	2592.00
666.09	2571.00
666.42	2568.00
666.75	2529.00
667.08	2521.00
667.42	2564.00
667.75	2552.00
668.08	2533.00
668.41	2558.00
668.74	2542.00
669.07	2542.00
669.40	2514.00
669.73	2548.00
670.06	2536.00
670.40	2550.00
670.73	2528.00
671.06	2537.00
671.39	2529.00
671.72	2533.00
672.05	2512.00
672.38	2530.00
672.71	2527.00
673.04	2519.00
673.37	2506.00
673.70	2560.00
674.03	2525.00
674.36	2505.00
674.69	2517.00
675.02	2531.00
675.35	2524.00
675.68	2505.00
676.01	2541.00
676.34	2482.00
676.67	2515.00
677.00	2528.00
677.33	2502.00
677.66	2476.00
677.99	2509.00
678.32	2488.00
678.65	2512.00
678.98	2473.00
679.31	2477.00
679.64	2485.00
679.97	2480.00
680.30	2492.00
680.63	2455.00
680.96	2485.00
681.29	2499.00
681.62	2495.00
681.95	2477.00
682.28	2466.00
682.61	2469.00
682.94	2468.00
683.27	2445.00
683.60	2474.00
683.93	2467.00
684.25	2458.00
684.58	2447.00
684.91	2475.00
685.24	2458.00
685.57	2441.00
685.90	2483.00
686.23	2410.00
686.56	2442.00
686.89	2445.00
687.21	2431.00
687.54	2471.00
687.87	2428.00
688.20	2404.00
688.53	2454.00
688.86	2445.00
689.19	2455.00
689.51	2431.00
689.84	2444.00
690.17	2431.00
690.50	2404.00
690.83	2460.00
691.16	2407.00
691.48	2385.00
691.81	2418.00
692.14	2390.00
692.47	2410.00
692.80	2401.00
693.12	2389.00
693.45	2397.00
693.78	2439.00
694.11	2383.00
694.44	2357.00
694.76	2407.00
695.09	2340.00
695.42	2363.00
695.75	2351.00
696.07	2358.00
696.40	2382.00
696.73	2346.00
697.06	2323.00
697.38	2362.00
697.71	2360.00
698.04	2339.00
698.37	2349.00
698.69	2354.00
699.02	2314.00
699.35	2349.00
699.67	2299.00
700.00	2317.00
700.33	2304.00
700.66	2307.00
700.98	2306.00
701.31	2300.00
701.64	2298.00
701.96	2298.00
702.29	2307.00
702.62	2286.00
702.94	2262.00
703.27	2269.00
703.60	2249.00
703.92	2252.00
704.25	2290.00
704.58	2279.00
704.90	2254.00
705.23	2244.00
705.56	2236.00
705.88	2251.00
706.21	2250.00
706.53	2232.00
706.86	2193.00
707.19	2205.00
707.51	2211.00
707.84	2183.00
708.16	2175.00
708.49	2202.00
708.82	2190.00
709.14	2166.00
709.47	2212.00
709.79	2192.00
710.12	2193.00
710.45	2176.00
710.77	2136.00
711.10	2152.00
711.42	2148.00
711.75	2129.00
712.07	2119.00
712.40	2120.00
712.72	2122.00
713.05	2121.00
713.37	2106.00
713.70	2078.00
714.03	2083.00
714.35	2096.00
714.68	2060.00
715.00	2080.00
715.33	2075.00
715.65	2045.00
715.98	2040.00
716.30	2039.00
716.63	2022.00
716.95	2004.00
717.28	1991.00
717.60	2013.00
717.92	2009.00
718.25	1965.00
718.57	1965.00
718.90	1947.00
719.22	1937.00
719.55	1939.00
719.87	1913.00
720.20	1924.00
720.52	1915.00
720.84	1902.00
721.17	1875.00
721.49	1871.00
721.82	1881.00
722.14	1890.00
722.47	1901.00
722.79	1858.00
723.11	1823.00
723.44	1855.00
723.76	1843.00
724.09	1819.00
724.41	1844.00
724.73	1819.00
725.06	1790.00
725.38	1823.00
725.70	1804.00
726.03	1772.00
726.35	1812.00
726.67	1777.00
727.00	1778.00
727.32	1802.00
727.65	1772.00
727.97	1769.00
728.29	1763.00
728.61	1768.00
728.94	1759.00
729.26	1780.00
729.58	1764.00
729.91	1736.00
730.23	1779.00
730.55	1750.00
730.88	1772.00
731.20	1772.00
731.52	1762.00
731.84	1757.00
732.17	1740.00
732.49	1752.00
732.81	1723.00
733.14	1743.00
733.46	1743.00
733.78	1753.00
734.10	1736.00
734.43	1713.00
734.75	1728.00
735.07	1726.00
735.39	1727.00
735.72	1685.00
736.04	1677.00
736.36	1701.00
736.68	1714.00
737.00	1741.00
737.33	1707.00
737.65	1726.00
737.97	1714.00
738.29	1724.00
738.61	1718.00
738.94	1706.00
739.26	1713.00
739.58	1689.00
739.90	1682.00
740.22	1676.00
740.54	1676.00
740.87	1702.00
741.19	1670.00
741.51	1655.00
741.83	1685.00
742.15	1665.00
742.47	1666.00
742.79	1668.00
743.12	1650.00
743.44	1657.00
743.76	1679.00
744.08	1664.00
744.40	1631.00
744.72	1656.00
745.04	1658.00
745.36	1645.00
745.68	1650.00
746.00	1628.00
746.33	1663.00
746.65	1643.00
746.97	1619.00
747.29	1612.00
747.61	1608.00
747.93	1620.00
748.25	1614.00
748.57	1631.00
748.89	1637.00
749.21	1618.00
749.53	1623.00
749.85	1591.00
750.17	1603.00
750.49	1614.00
750.81	1619.00
751.13	1615.00
751.45	1573.00
751.77	1614.00
752.09	1604.00
752.41	1600.00
752.73	1589.00
753.05	1607.00
753.37	1605.00
753.69	1576.00
754.01	1607.00
754.33	1587.00
754.65	1611.00
754.97	1563.00
755.29	1599.00
755.61	1578.00
755.93	1587.00
756.25	1574.00
756.57	1586.00
756.89	1580.00
757.21	1591.00
757.53	1573.00
757.84	1574.00
758.16	1555.00
758.48	1560.00
758.80	1546.00
759.12	1562.00
759.44	1556.00
759.76	1567.00
760.08	1553.00
760.40	1568.00
760.71	1567.00
761.03	1540.00
761.35	1547.00
761.67	1542.00
761.99	1541.00
762.31	1547.00
762.63	1523.00
762.94	1546.00
763.26	1552.00
763.58	1569.00
763.90	1533.00
764.22	1512.00
764.54	1509.00
764.85	1535.00
765.17	1523.00
765.49	1537.00
765.81	1517.00
766.13	1512.00
766.44	1514.00
766.76	1506.00
767.08	1528.00
767.40	1509.00
767.72	1504.00
768.03	1514.00
768.35	1479.00
768.67	1493.00
768.99	1511.00
769.30	1507.00
769.62	1493.00
769.94	1482.00
770.26	1488.00
770.57	1499.00
770.89	1478.00
771.21	1498.00
771.53	1470.00
771.84	1487.00
772.16	1474.00
772.48	1479.00
772.79	1461.00
773.11	1480.00
773.43	1467.00
773.75	1467.00
774.06	1468.00
774.38	1470.00
774.70	1452.00
775.01	1455.00
775.33	1454.00
775.65	1428.00
775.96	1442.00
776.28	1464.00
776.59	1426.00
776.91	1401.00
777.23	1439.00
777.54	1440.00
777.86	1432.00
778.18	1431.00
778.49	1426.00
778.81	1416.00
779.13	1425.00
779.44	1421.00
779.76	1429.00
780.07	1421.00
780.39	1405.00
780.71	1406.00
781.02	1408.00
781.34	1384.00
781.65	1398.00
781.97	1372.00
782.28	1379.00
782.60	1381.00
782.91	1364.00
783.23	1362.00
783.55	1382.00
783.86	1363.00
784.18	1381.00
784.49	1359.00
784.81	1389.00
785.12	1369.00
785.44	1358.00
785.75	1361.00
786.07	1367.00
786.38	1359.00
786.70	1361.00
787.01	1325.00
787.33	1341.00
787.64	1348.00
787.96	1357.00
788.27	1341.00
788.59	1346.00
788.90	1341.00
789.22	1369.00
789.53	1334.00
789.85	1345.00
790.16	1346.00
790.47	1312.00
790.79	1353.00
791.10	1346.00
791.42	1355.00
791.73	1340.00
792.05	1373.00
792.36	1321.00
792.67	1350.00
792.99	1315.00
793.30	1354.00
793.62	1322.00
793.93	1327.00
794.24	1340.00
794.56	1343.00
794.87	1322.00
795.18	1357.00
795.50	1353.00
795.81	1344.00
796.13	1362.00
796.44	1357.00
796.75	1333.00
797.07	1324.00
797.38	1331.00
797.69	1337.00
798.01	1349.00
798.32	1330.00
798.63	1347.00
798.95	1338.00
799.26	1337.00
799.57	1354.00
799.89	1334.00
800.20	1344.00
800.51	1325.00
800.82	1346.00
801.14	1348.00
801.45	1339.00
801.76	1350.00
802.08	1357.00
802.39	1348.00
802.70	1348.00
803.01	1331.00
803.33	1340.00
803.64	1320.00
803.95	1342.00
804.26	1337.00
804.57	1315.00
804.89	1353.00
805.20	1347.00
805.51	1359.00
805.82	1325.00
806.14	1355.00
806.45	1339.00
806.76	1339.00
807.07	1308.00
807.38	1342.00
807.70	1307.00
808.01	1315.00
808.32	1315.00
808.63	1317.00
808.94	1341.00
809.25	1335.00
809.57	1320.00
809.88	1294.00
810.19	1299.00
810.50	1316.00
810.81	1323.00
811.12	1317.00
811.43	1317.00
811.75	1309.00
812.06	1284.00
812.37	1306.00
812.68	1289.00
812.99	1304.00
813.30	1323.00
813.61	1302.00
813.92	1304.00
814.23	1298.00
814.54	1287.00
814.85	1296.00
815.17	1310.00
815.48	1309.00
815.79	1294.00
816.10	1320.00
816.41	1304.00
816.72	1290.00
817.03	1303.00
817.34	1288.00
817.65	1291.00
817.96	1277.00
818.27	1297.00
818.58	1295.00
818.89	1291.00
819.20	1314.00
819.51	1301.00
819.82	1289.00
820.13	1306.00
820.44	1289.00
820.75	1310.00
821.06	1302.00
821.37	1300.00
821.68	1311.00
821.99	1295.00
822.30	1302.00
822.61	1291.00
822.92	1303.00
823.23	1298.00
823.54	1295.00
823.85	1296.00
824.15	1304.00
824.46	1302.00
824.77	1281.00
825.08	1285.00
825.39	1302.00
825.70	1285.00
826.01	1295.00
826.32	1277.00
826.63	1288.00
826.94	1285.00
827.24	1295.00
827.55	1269.00
827.86	1298.00
828.17	1291.00
828.48	1284.00
828.79	1313.00
829.10	1294.00
829.41	1321.00
829.71	1281.00
830.02	1295.00
830.33	1317.00
830.64	1323.00
830.95	1321.00
831.25	1298.00
831.56	1304.00
831.87	1305.00
832.18	1318.00
832.49	1313.00
832.80	1284.00
833.10	1317.00
833.41	1302.00
833.72	1319.00
834.03	1311.00
834.33	1319.00
834.64	1315.00
834.95	1322.00
835.26	1292.00
835.56	1327.00
835.87	1320.00
836.18	1314.00
836.49	1335.00
836.79	1324.00
837.10	1314.00
837.41	1319.00
837.72	1317.00
838.02	1323.00
838.33	1315.00
838.64	1320.00
838.94	1304.00
839.25	1316.00
839.56	1322.00
839.86	1316.00
840.17	1354.00
840.48	1350.00
840.78	1301.00
841.09	1321.00
841.40	1360.00
841.70	1328.00
842.01	1326.00
842.32	1325.00
842.62	1343.00
842.93	1333.00
843.24	1337.00
843.54	1338.00
843.85	1335.00
844.15	1361.00
844.46	1333.00
844.77	1351.00
845.07	1345.00
845.38	1331.00
845.68	1326.00
845.99	1311.00
846.30	1337.00
846.60	1374.00
846.91	1358.00
847.21	1367.00
847.52	1360.00
847.82	1382.00
848.13	1363.00
848.43	1354.00
848.74	1367.00
849.05	1374.00
849.35	1355.00
849.66	1367.00
849.96	1373.00
850.27	1379.00
850.57	1355.00
850.88	1379.00
851.18	1361.00
851.49	1378.00
851.79	1387.00
852.10	1396.00
852.40	1374.00
852.71	1371.00
853.01	1380.00
853.32	1381.00
853.62	1393.00
853.92	1383.00
854.23	1390.00
854.53	1392.00
854.84	1391.00
855.14	1360.00
855.45	1412.00
855.75	1389.00
856.05	1390.00
856.36	1395.00
856.66	1397.00
856.97	1397.00
857.27	1397.00
857.57	1395.00
857.88	1397.00
858.18	1395.00
858.49	1398.00
858.79	1391.00
859.09	1380.00
859.40	1420.00
859.70	1378.00
860.00	1418.00
860.31	1371.00
860.61	1412.00
860.92	1428.00
861.22	1401.00
861.52	1415.00
861.82	1400.00
862.13	1409.00
862.43	1395.00
862.73	1407.00
863.04	1405.00
863.34	1393.00
863.64	1403.00
863.95	1388.00
864.25	1418.00
864.55	1416.00
864.85	1387.00
865.16	1404.00
865.46	1394.00
865.76	1375.00
866.07	1406.00
866.37	1404.00
866.67	1386.00
866.97	1387.00
867.27	1389.00
867.58	1378.00
867.88	1393.00
868.18	1374.00
868.48	1416.00
868.79	1379.00
869.09	1371.00
869.39	1365.00
869.69	1378.00
869.99	1364.00
870.30	1377.00
870.60	1383.00
870.90	1344.00
871.20	1349.00
871.50	1349.00
871.80	1324.00
872.11	1334.00
872.41	1343.00
872.71	1336.00
873.01	1346.00
873.31	1335.00
873.61	1316.00
873.91	1309.00
874.21	1312.00
874.52	1329.00
874.82	1323.00
875.12	1312.00
875.42	1322.00
875.72	1308.00
876.02	1303.00
876.32	1292.00
876.62	1291.00
876.92	1271.00
877.22	1299.00
877.52	1285.00
877.83	1299.00
878.13	1293.00
878.43	1287.00
878.73	1288.00
879.03	1298.00
879.33	1256.00
879.63	1275.00
879.93	1273.00
880.23	1289.00
880.53	1284.00
880.83	1263.00
881.13	1270.00
881.43	1297.00
881.73	1298.00
882.03	1295.00
882.33	1258.00
882.63	1279.00
882.93	1292.00
883.23	1262.00
883.53	1272.00
883.83	1279.00
884.13	1300.00
884.42	1290.00
884.72	1291.00
885.02	1305.00
885.32	1277.00
885.62	1300.00
885.92	1276.00
886.22	1282.00
886.52	1313.00
886.82	1295.00
887.12	1285.00
887.42	1312.00
887.72	1314.00
888.01	1299.00
888.31	1296.00
888.61	1302.00
888.91	1325.00
889.21	1323.00
889.51	1310.00
889.81	1315.00
890.10	1331.00
890.40	1315.00
890.70	1319.00
891.00	1310.00
891.30	1331.00
891.60	1316.00
891.89	1325.00
892.19	1313.00
892.49	1323.00
892.79	1330.00
893.09	1315.00
893.38	1323.00
893.68	1324.00
893.98	1307.00
894.28	1310.00
894.58	1317.00
894.87	1307.00
895.17	1319.00
895.47	1305.00
895.77	1326.00
896.06	1298.00
896.36	1310.00
896.66	1312.00
896.96	1315.00
897.25	1311.00
897.55	1307.00
897.85	1285.00
898.14	1279.00
898.44	1294.00
898.74	1299.00
899.04	1295.00
899.33	1296.00
899.63	1287.00
899.93	1279.00
900.22	1267.00
900.52	1316.00
900.82	1272.00
901.11	1276.00
901.41	1252.00
901.71	1245.00
902.00	1255.00
902.30	1258.00
902.59	1262.00
902.89	1254.00
903.19	1242.00
903.48	1213.00
903.78	1232.00
904.08	1233.00
904.37	1242.00
904.67	1226.00
904.96	1211.00
905.26	1223.00
905.55	1235.00
905.85	1205.00
906.15	1199.00
906.44	1177.00
906.74	1190.00
907.03	1186.00
907.33	1187.00
907.62	1192.00
907.92	1177.00
908.21	1155.00
908.51	1163.00
908.80	1162.00
909.10	1187.00
909.40	1156.00
909.69	1128.00
909.99	1144.00
910.28	1113.00
910.57	1130.00
910.87	1126.00
911.16	1106.00
911.46	1116.00
911.75	1125.00
912.05	1102.00
912.34	1108.00
912.64	1067.00
912.93	1069.00
913.23	1095.00
913.52	1063.00
913.82	1063.00
914.11	1087.00
914.40	1056.00
914.70	1068.00
914.99	1052.00
915.29	1037.00
915.58	1052.00
915.87	1008.00
916.17	1007.00
916.46	1004.00
916.76	999.00
917.05	999.00
917.34	983.00
917.64	978.00
917.93	991.00
918.22	972.00
918.52	958.00
918.81	952.00
919.10	955.00
919.40	956.00
919.69	929.00
919.98	930.00
920.28	912.00
920.57	908.00
920.86	901.00
921.16	887.00
921.45	891.00
921.74	892.00
922.04	879.00
922.33	869.00
922.62	867.00
922.91	835.00
923.21	846.00
923.50	832.00
923.79	814.00
924.08	834.00
924.38	821.00
924.67	809.00
924.96	809.00
925.25	796.00
925.55	786.00
925.84	753.00
926.13	746.00
926.42	751.00
926.71	731.00
927.01	744.00
927.30	739.00
927.59	720.00
927.88	712.00
928.17	716.00
928.46	689.00
928.76	672.00
929.05	678.00
929.34	664.00
929.63	674.00
929.92	640.00
930.21	640.00
930.50	617.00
930.80	618.00
931.09	608.00
931.38	605.00
931.67	573.00
931.96	572.00
932.25	556.00
932.54	560.00
932.83	544.00
933.12	523.00
933.41	519.00
933.71	492.00
934.00	489.00
934.29	462.00
934.58	457.00
934.87	450.00
935.16	440.00
935.45	414.00
935.74	403.00
936.03	378.00
936.32	380.00
936.61	360.00
936.90	329.00
937.19	329.00
937.48	320.00
937.77	294.00
938.06	290.00
938.35	276.00
938.64	251.00
938.93	249.00
939.22	242.00
939.51	243.00
939.80	233.00
940.09	223.00
940.38	202.00
940.67	212.00
940.96	197.00
941.25	185.00
941.53	183.00
941.82	182.00
942.11	182.00
942.40	172.00
942.69	158.00
942.98	162.00
943.27	163.00
943.56	163.00
943.85	164.00
944.14	158.00
944.42	158.00
944.71	149.00
945.00	160.00
945.29	153.00
945.58	155.00
945.87	156.00
946.16	156.00
946.44	157.00
946.73	155.00
947.02	161.00
947.31	155.00
947.60	177.00
947.89	160.00
948.17	171.00
948.46	166.00
948.75	164.00
949.04	165.00
949.32	187.00
949.61	179.00
949.90	183.00
950.19	174.00
950.48	178.00
950.76	193.00
951.05	185.00
951.34	193.00
951.63	186.00
951.91	206.00
952.20	197.00
952.49	195.00
952.77	199.00
953.06	200.00
953.35	208.00
953.64	212.00
953.92	217.00
954.21	216.00
954.50	213.00
954.78	219.00
955.07	232.00
955.36	232.00
955.64	230.00
955.93	229.00
956.22	224.00
956.50	225.00
956.79	226.00
957.08	228.00
957.36	228.00
957.65	242.00
957.93	226.00
958.22	227.00
958.51	241.00
958.79	239.00
959.08	248.00
959.36	255.00
959.65	248.00
959.94	246.00
960.22	255.00
960.51	247.00
960.79	245.00
961.08	244.00
961.36	254.00
961.65	252.00
961.94	255.00
962.22	251.00
962.51	259.00
962.79	251.00
963.08	255.00
963.36	250.00
963.65	255.00
963.93	259.00
964.22	251.00
964.50	249.00
964.79	251.00
965.07	253.00
965.36	266.00
965.64	261.00
965.93	255.00
966.21	254.00
966.49	252.00
966.78	252.00
967.06	254.00
967.35	259.00
967.63	245.00
967.92	257.00
968.20	248.00
968.48	255.00
968.77	259.00
969.05	249.00
969.34	260.00
969.62	256.00
969.90	249.00
970.19	247.00
970.47	258.00
970.76	260.00
971.04	246.00
971.32	244.00
971.61	236.00
971.89	253.00
972.17	243.00
972.46	243.00
972.74	231.00
973.02	238.00
973.31	239.00
973.59	232.00
973.87	241.00
974.16	242.00
974.44	243.00
974.72	232.00
975.00	238.00
975.29	227.00
975.57	241.00
975.85	240.00
976.14	222.00
976.42	228.00
976.70	232.00
976.98	227.00
977.27	217.00
977.55	222.00
977.83	221.00
978.11	213.00
978.39	227.00
978.68	228.00
978.96	227.00
979.24	216.00
979.52	219.00
979.81	226.00
980.09	212.00
980.37	221.00
980.65	208.00
980.93	214.00
981.21	208.00
981.50	223.00
981.78	209.00
982.06	200.00
982.34	203.00
982.62	199.00
982.90	205.00
983.18	204.00
983.47	202.00
983.75	205.00
984.03	202.00
984.31	207.00
984.59	188.00
984.87	191.00
985.15	197.00
985.43	188.00
985.71	191.00
985.99	186.00
986.27	183.00
986.55	192.00
986.84	190.00
987.12	186.00
987.40	192.00
987.68	189.00
987.96	183.00
988.24	181.00
988.52	179.00
988.80	170.00
989.08	182.00
989.36	180.00
989.64	176.00
989.92	170.00
990.20	173.00
990.48	178.00
990.76	169.00
991.04	171.00
991.32	167.00
991.60	167.00
991.88	161.00
992.16	167.00
992.43	162.00
992.71	156.00
992.99	154.00
993.27	159.00
993.55	153.00
993.83	166.00
994.11	143.00
994.39	157.00
994.67	148.00
994.95	150.00
995.23	144.00
995.50	146.00
995.78	144.00
996.06	155.00
996.34	135.00
996.62	143.00
996.90	155.00
997.18	151.00
997.45	140.00
997.73	139.00
998.01	137.00
998.29	144.00
998.57	134.00
998.85	129.00
999.12	133.00
999.40	124.00
999.68	131.00
999.96	122.00
1000.24	132.00
1000.51	130.00
1000.79	127.00
1001.07	119.00
1001.35	131.00
1001.62	125.00
1001.90	120.00
1002.18	119.00
1002.46	116.00
1002.73	120.00
1003.01	115.00
1003.29	120.00
1003.56	116.00
1003.84	116.00
1004.12	105.00
1004.40	112.00
1004.67	102.00
1004.95	103.00
>>>>>End Processed Spectral Data<<<<<
