SpectraSuite Data File
++++++++++++++++++++++++++++++++++++
Date: Fri Jul 12 13:50:57 ART 2024
User: Javier
Dark Spectrum Present: Yes
Reference Spectrum Present: No
Number of Sampled Component Spectra: 1
Spectrometers: ADUD7991
Integration Time (usec): 30000 (ADUD7991)
Spectra Averaged: 1 (ADUD7991)
Boxcar Smoothing: 0 (ADUD7991)
Correct for Electrical Dark: No (ADUD7991)
Strobe/Lamp Enabled: No (ADUD7991)
Correct for Detector Non-linearity: No (ADUD7991)
Correct for Stray Light: No (ADUD7991)
Number of Pixels in Processed Spectrum: 2048
>>>>>Begin Processed Spectral Data<<<<<
338.97	0.00
339.33	-1.00
339.70	7.00
340.06	-1.00
340.42	-2.00
340.79	-4.00
341.15	5.00
341.52	2.00
341.88	4.00
342.24	0.00
342.61	3.00
342.97	-1.00
343.33	3.00
343.70	-1.00
344.06	2.00
344.43	1.00
344.79	-1.00
345.15	-4.00
345.52	-5.00
345.88	0.00
346.24	-4.00
346.61	-2.00
346.97	3.00
347.33	11.00
347.70	-3.00
348.06	8.00
348.42	-1.00
348.79	0.00
349.15	3.00
349.51	6.00
349.88	0.00
350.24	-2.00
350.60	-3.00
350.97	7.00
351.33	1.00
351.69	0.00
352.05	-5.00
352.42	-2.00
352.78	2.00
353.14	2.00
353.51	1.00
353.87	-4.00
354.23	-3.00
354.60	7.00
354.96	1.00
355.32	0.00
355.68	2.00
356.05	9.00
356.41	6.00
356.77	9.00
357.13	8.00
357.50	0.00
357.86	7.00
358.22	0.00
358.58	-1.00
358.95	-6.00
359.31	-3.00
359.67	2.00
360.03	6.00
360.40	-4.00
360.76	-2.00
361.12	-2.00
361.48	8.00
361.85	-12.00
362.21	3.00
362.57	-5.00
362.93	-3.00
363.29	5.00
363.66	-5.00
364.02	0.00
364.38	4.00
364.74	-3.00
365.10	8.00
365.47	3.00
365.83	9.00
366.19	1.00
366.55	2.00
366.91	1.00
367.28	0.00
367.64	6.00
368.00	0.00
368.36	3.00
368.72	1.00
369.08	3.00
369.45	4.00
369.81	-9.00
370.17	5.00
370.53	-3.00
370.89	4.00
371.25	1.00
371.62	-4.00
371.98	-1.00
372.34	2.00
372.70	6.00
373.06	5.00
373.42	2.00
373.78	6.00
374.14	6.00
374.51	1.00
374.87	0.00
375.23	6.00
375.59	2.00
375.95	-2.00
376.31	-5.00
376.67	0.00
377.03	2.00
377.39	-7.00
377.76	4.00
378.12	4.00
378.48	-3.00
378.84	-4.00
379.20	1.00
379.56	11.00
379.92	2.00
380.28	4.00
380.64	4.00
381.00	2.00
381.36	-3.00
381.72	10.00
382.08	-2.00
382.45	6.00
382.81	0.00
383.17	-1.00
383.53	2.00
383.89	3.00
384.25	2.00
384.61	1.00
384.97	3.00
385.33	-3.00
385.69	1.00
386.05	2.00
386.41	4.00
386.77	4.00
387.13	3.00
387.49	2.00
387.85	4.00
388.21	0.00
388.57	9.00
388.93	10.00
389.29	-2.00
389.65	-2.00
390.01	7.00
390.37	6.00
390.73	14.00
391.09	10.00
391.45	13.00
391.81	9.00
392.17	13.00
392.53	16.00
392.89	8.00
393.25	13.00
393.61	10.00
393.97	17.00
394.33	9.00
394.69	16.00
395.05	15.00
395.41	15.00
395.77	25.00
396.12	13.00
396.48	18.00
396.84	27.00
397.20	25.00
397.56	21.00
397.92	32.00
398.28	21.00
398.64	37.00
399.00	39.00
399.36	35.00
399.72	38.00
400.08	44.00
400.44	41.00
400.79	39.00
401.15	36.00
401.51	45.00
401.87	56.00
402.23	55.00
402.59	56.00
402.95	52.00
403.31	54.00
403.67	68.00
404.02	58.00
404.38	62.00
404.74	72.00
405.10	60.00
405.46	64.00
405.82	65.00
406.18	73.00
406.53	78.00
406.89	82.00
407.25	82.00
407.61	79.00
407.97	81.00
408.33	93.00
408.69	92.00
409.04	94.00
409.40	107.00
409.76	103.00
410.12	105.00
410.48	113.00
410.83	107.00
411.19	116.00
411.55	112.00
411.91	108.00
412.27	120.00
412.63	129.00
412.98	116.00
413.34	136.00
413.70	118.00
414.06	143.00
414.41	131.00
414.77	143.00
415.13	141.00
415.49	148.00
415.85	140.00
416.20	147.00
416.56	142.00
416.92	158.00
417.28	140.00
417.63	160.00
417.99	152.00
418.35	158.00
418.71	172.00
419.06	176.00
419.42	173.00
419.78	171.00
420.14	177.00
420.49	174.00
420.85	174.00
421.21	180.00
421.57	194.00
421.92	179.00
422.28	192.00
422.64	194.00
422.99	207.00
423.35	209.00
423.71	215.00
424.06	225.00
424.42	217.00
424.78	223.00
425.14	221.00
425.49	219.00
425.85	216.00
426.21	229.00
426.56	235.00
426.92	238.00
427.28	236.00
427.63	225.00
427.99	244.00
428.35	245.00
428.70	246.00
429.06	248.00
429.42	252.00
429.77	252.00
430.13	266.00
430.49	256.00
430.84	263.00
431.20	263.00
431.55	275.00
431.91	264.00
432.27	272.00
432.62	272.00
432.98	274.00
433.34	289.00
433.69	275.00
434.05	270.00
434.40	267.00
434.76	291.00
435.12	282.00
435.47	279.00
435.83	295.00
436.18	312.00
436.54	297.00
436.90	301.00
437.25	307.00
437.61	307.00
437.96	296.00
438.32	305.00
438.67	309.00
439.03	322.00
439.39	316.00
439.74	328.00
440.10	331.00
440.45	322.00
440.81	332.00
441.16	305.00
441.52	318.00
441.87	344.00
442.23	342.00
442.59	330.00
442.94	322.00
443.30	338.00
443.65	330.00
444.01	340.00
444.36	327.00
444.72	355.00
445.07	344.00
445.43	336.00
445.78	341.00
446.14	329.00
446.49	339.00
446.85	354.00
447.20	338.00
447.56	343.00
447.91	333.00
448.27	363.00
448.62	362.00
448.98	345.00
449.33	343.00
449.69	344.00
450.04	364.00
450.39	368.00
450.75	361.00
451.10	363.00
451.46	340.00
451.81	372.00
452.17	345.00
452.52	366.00
452.88	366.00
453.23	365.00
453.58	348.00
453.94	366.00
454.29	360.00
454.65	363.00
455.00	366.00
455.36	362.00
455.71	369.00
456.06	344.00
456.42	359.00
456.77	347.00
457.13	367.00
457.48	362.00
457.83	362.00
458.19	364.00
458.54	359.00
458.90	355.00
459.25	368.00
459.60	364.00
459.96	360.00
460.31	363.00
460.66	364.00
461.02	360.00
461.37	353.00
461.73	358.00
462.08	359.00
462.43	363.00
462.79	368.00
463.14	346.00
463.49	356.00
463.85	373.00
464.20	361.00
464.55	360.00
464.91	364.00
465.26	358.00
465.61	369.00
465.97	362.00
466.32	345.00
466.67	354.00
467.03	375.00
467.38	362.00
467.73	368.00
468.08	370.00
468.44	373.00
468.79	369.00
469.14	366.00
469.50	350.00
469.85	359.00
470.20	359.00
470.55	383.00
470.91	375.00
471.26	372.00
471.61	372.00
471.97	383.00
472.32	379.00
472.67	377.00
473.02	377.00
473.38	394.00
473.73	391.00
474.08	388.00
474.43	391.00
474.78	392.00
475.14	374.00
475.49	404.00
475.84	394.00
476.19	398.00
476.55	402.00
476.90	411.00
477.25	414.00
477.60	404.00
477.95	400.00
478.31	406.00
478.66	418.00
479.01	422.00
479.36	435.00
479.71	426.00
480.07	450.00
480.42	432.00
480.77	436.00
481.12	440.00
481.47	444.00
481.82	456.00
482.18	447.00
482.53	450.00
482.88	451.00
483.23	456.00
483.58	463.00
483.93	458.00
484.29	460.00
484.64	470.00
484.99	476.00
485.34	480.00
485.69	482.00
486.04	481.00
486.39	479.00
486.74	487.00
487.10	498.00
487.45	492.00
487.80	495.00
488.15	504.00
488.50	511.00
488.85	507.00
489.20	516.00
489.55	506.00
489.90	503.00
490.26	527.00
490.61	528.00
490.96	554.00
491.31	527.00
491.66	539.00
492.01	546.00
492.36	537.00
492.71	560.00
493.06	565.00
493.41	553.00
493.76	562.00
494.11	576.00
494.46	579.00
494.81	558.00
495.16	581.00
495.51	585.00
495.86	601.00
496.21	603.00
496.56	604.00
496.91	616.00
497.27	615.00
497.62	614.00
497.97	631.00
498.32	638.00
498.67	638.00
499.02	635.00
499.37	656.00
499.72	672.00
500.07	648.00
500.42	658.00
500.77	661.00
501.11	689.00
501.46	677.00
501.81	685.00
502.16	699.00
502.51	707.00
502.86	711.00
503.21	697.00
503.56	699.00
503.91	732.00
504.26	744.00
504.61	740.00
504.96	767.00
505.31	751.00
505.66	769.00
506.01	758.00
506.36	761.00
506.71	790.00
507.06	792.00
507.41	795.00
507.75	812.00
508.10	822.00
508.45	820.00
508.80	812.00
509.15	834.00
509.50	836.00
509.85	860.00
510.20	870.00
510.55	875.00
510.90	910.00
511.24	877.00
511.59	891.00
511.94	908.00
512.29	900.00
512.64	926.00
512.99	939.00
513.34	947.00
513.68	960.00
514.03	958.00
514.38	978.00
514.73	979.00
515.08	996.00
515.43	1020.00
515.77	992.00
516.12	1038.00
516.47	1020.00
516.82	1035.00
517.17	1064.00
517.52	1064.00
517.86	1075.00
518.21	1101.00
518.56	1105.00
518.91	1101.00
519.26	1108.00
519.60	1132.00
519.95	1143.00
520.30	1160.00
520.65	1141.00
521.00	1168.00
521.34	1178.00
521.69	1199.00
522.04	1183.00
522.39	1214.00
522.73	1215.00
523.08	1211.00
523.43	1244.00
523.78	1251.00
524.12	1272.00
524.47	1267.00
524.82	1278.00
525.17	1300.00
525.51	1307.00
525.86	1306.00
526.21	1356.00
526.56	1345.00
526.90	1339.00
527.25	1357.00
527.60	1369.00
527.94	1397.00
528.29	1394.00
528.64	1411.00
528.99	1401.00
529.33	1428.00
529.68	1428.00
530.03	1457.00
530.37	1454.00
530.72	1467.00
531.07	1499.00
531.41	1494.00
531.76	1491.00
532.11	1511.00
532.45	1526.00
532.80	1527.00
533.15	1555.00
533.49	1573.00
533.84	1557.00
534.19	1557.00
534.53	1579.00
534.88	1577.00
535.23	1597.00
535.57	1631.00
535.92	1648.00
536.26	1649.00
536.61	1663.00
536.96	1663.00
537.30	1690.00
537.65	1693.00
537.99	1686.00
538.34	1721.00
538.69	1711.00
539.03	1714.00
539.38	1758.00
539.72	1764.00
540.07	1768.00
540.42	1773.00
540.76	1765.00
541.11	1800.00
541.45	1813.00
541.80	1811.00
542.14	1835.00
542.49	1833.00
542.84	1837.00
543.18	1857.00
543.53	1903.00
543.87	1918.00
544.22	1909.00
544.56	1909.00
544.91	1909.00
545.25	1938.00
545.60	1967.00
545.94	1954.00
546.29	1943.00
546.63	2001.00
546.98	1992.00
547.32	2010.00
547.67	2026.00
548.01	2023.00
548.36	2011.00
548.70	2057.00
549.05	2070.00
549.39	2039.00
549.74	2043.00
550.08	2085.00
550.43	2103.00
550.77	2083.00
551.12	2096.00
551.46	2135.00
551.81	2157.00
552.15	2149.00
552.50	2158.00
552.84	2182.00
553.18	2178.00
553.53	2211.00
553.87	2205.00
554.22	2195.00
554.56	2205.00
554.91	2234.00
555.25	2229.00
555.59	2245.00
555.94	2253.00
556.28	2275.00
556.63	2259.00
556.97	2287.00
557.32	2285.00
557.66	2315.00
558.00	2320.00
558.35	2309.00
558.69	2327.00
559.03	2366.00
559.38	2360.00
559.72	2384.00
560.07	2377.00
560.41	2401.00
560.75	2383.00
561.10	2395.00
561.44	2410.00
561.78	2435.00
562.13	2419.00
562.47	2472.00
562.81	2446.00
563.16	2481.00
563.50	2484.00
563.84	2469.00
564.19	2500.00
564.53	2493.00
564.87	2508.00
565.22	2508.00
565.56	2506.00
565.90	2511.00
566.25	2527.00
566.59	2567.00
566.93	2548.00
567.28	2573.00
567.62	2583.00
567.96	2599.00
568.30	2597.00
568.65	2630.00
568.99	2618.00
569.33	2642.00
569.68	2611.00
570.02	2631.00
570.36	2677.00
570.70	2668.00
571.05	2661.00
571.39	2700.00
571.73	2670.00
572.07	2689.00
572.42	2692.00
572.76	2704.00
573.10	2684.00
573.44	2698.00
573.78	2735.00
574.13	2722.00
574.47	2766.00
574.81	2731.00
575.15	2753.00
575.49	2733.00
575.84	2769.00
576.18	2759.00
576.52	2757.00
576.86	2765.00
577.20	2774.00
577.55	2716.00
577.89	2753.00
578.23	2720.00
578.57	2710.00
578.91	2683.00
579.25	2669.00
579.60	2684.00
579.94	2699.00
580.28	2692.00
580.62	2720.00
580.96	2707.00
581.30	2720.00
581.65	2753.00
581.99	2780.00
582.33	2816.00
582.67	2824.00
583.01	2860.00
583.35	2855.00
583.69	2916.00
584.03	2889.00
584.37	2922.00
584.72	2897.00
585.06	2933.00
585.40	2951.00
585.74	2917.00
586.08	2904.00
586.42	2945.00
586.76	2958.00
587.10	2905.00
587.44	2912.00
587.78	2945.00
588.12	2955.00
588.46	2942.00
588.80	2925.00
589.15	2924.00
589.49	2971.00
589.83	2929.00
590.17	2894.00
590.51	2962.00
590.85	2950.00
591.19	2978.00
591.53	2957.00
591.87	2961.00
592.21	2942.00
592.55	2967.00
592.89	2952.00
593.23	2996.00
593.57	2959.00
593.91	2989.00
594.25	2993.00
594.59	2938.00
594.93	2942.00
595.27	2975.00
595.61	2976.00
595.95	3035.00
596.29	2984.00
596.63	3019.00
596.97	2997.00
597.31	3005.00
597.65	2990.00
597.99	3020.00
598.32	3010.00
598.66	2995.00
599.00	3003.00
599.34	3005.00
599.68	2983.00
600.02	3037.00
600.36	3041.00
600.70	2989.00
601.04	3022.00
601.38	3045.00
601.72	3007.00
602.06	3070.00
602.40	3011.00
602.73	3030.00
603.07	3053.00
603.41	2992.00
603.75	3033.00
604.09	3049.00
604.43	3082.00
604.77	3042.00
605.11	3064.00
605.45	3019.00
605.78	3030.00
606.12	3050.00
606.46	3037.00
606.80	3010.00
607.14	3065.00
607.48	3037.00
607.81	3041.00
608.15	3070.00
608.49	3025.00
608.83	3072.00
609.17	3065.00
609.51	3023.00
609.84	3079.00
610.18	3057.00
610.52	3063.00
610.86	3080.00
611.20	3076.00
611.53	3054.00
611.87	3070.00
612.21	3065.00
612.55	3047.00
612.89	3096.00
613.22	3108.00
613.56	3002.00
613.90	3076.00
614.24	3063.00
614.57	3093.00
614.91	3051.00
615.25	3037.00
615.59	3081.00
615.92	3075.00
616.26	3067.00
616.60	3059.00
616.94	3080.00
617.27	3028.00
617.61	3080.00
617.95	3064.00
618.29	3044.00
618.62	3085.00
618.96	3077.00
619.30	3093.00
619.63	3062.00
619.97	3043.00
620.31	3043.00
620.64	3090.00
620.98	3063.00
621.32	3060.00
621.66	3040.00
621.99	3039.00
622.33	3042.00
622.67	3069.00
623.00	3064.00
623.34	3023.00
623.68	3011.00
624.01	3072.00
624.35	3034.00
624.68	3061.00
625.02	3031.00
625.36	3054.00
625.69	3014.00
626.03	3047.00
626.37	3026.00
626.70	3019.00
627.04	2992.00
627.37	3023.00
627.71	2999.00
628.05	3017.00
628.38	3003.00
628.72	3046.00
629.05	3010.00
629.39	3034.00
629.73	2987.00
630.06	3011.00
630.40	2983.00
630.73	2969.00
631.07	3015.00
631.41	2988.00
631.74	3008.00
632.08	2987.00
632.41	2976.00
632.75	2961.00
633.08	2950.00
633.42	2986.00
633.75	2966.00
634.09	2959.00
634.42	2936.00
634.76	2970.00
635.09	2923.00
635.43	2948.00
635.76	2910.00
636.10	2916.00
636.43	2941.00
636.77	2932.00
637.10	2927.00
637.44	2911.00
637.77	2910.00
638.11	2905.00
638.44	2911.00
638.78	2873.00
639.11	2904.00
639.45	2877.00
639.78	2878.00
640.12	2870.00
640.45	2854.00
640.79	2867.00
641.12	2835.00
641.46	2865.00
641.79	2871.00
642.12	2833.00
642.46	2860.00
642.79	2861.00
643.13	2837.00
643.46	2813.00
643.80	2831.00
644.13	2812.00
644.46	2788.00
644.80	2806.00
645.13	2797.00
645.47	2760.00
645.80	2762.00
646.13	2735.00
646.47	2773.00
646.80	2735.00
647.13	2746.00
647.47	2711.00
647.80	2708.00
648.14	2726.00
648.47	2714.00
648.80	2711.00
649.14	2718.00
649.47	2687.00
649.80	2684.00
650.14	2691.00
650.47	2646.00
650.80	2673.00
651.14	2674.00
651.47	2678.00
651.80	2642.00
652.14	2621.00
652.47	2614.00
652.80	2621.00
653.14	2631.00
653.47	2596.00
653.80	2581.00
654.13	2573.00
654.47	2583.00
654.80	2552.00
655.13	2592.00
655.47	2558.00
655.80	2577.00
656.13	2561.00
656.46	2577.00
656.80	2552.00
657.13	2529.00
657.46	2549.00
657.79	2526.00
658.13	2546.00
658.46	2520.00
658.79	2501.00
659.12	2483.00
659.45	2466.00
659.79	2444.00
660.12	2472.00
660.45	2445.00
660.78	2444.00
661.12	2460.00
661.45	2446.00
661.78	2443.00
662.11	2409.00
662.44	2402.00
662.77	2426.00
663.11	2404.00
663.44	2383.00
663.77	2380.00
664.10	2368.00
664.43	2358.00
664.77	2322.00
665.10	2377.00
665.43	2339.00
665.76	2330.00
666.09	2345.00
666.42	2323.00
666.75	2313.00
667.08	2284.00
667.42	2300.00
667.75	2288.00
668.08	2267.00
668.41	2266.00
668.74	2268.00
669.07	2259.00
669.40	2254.00
669.73	2259.00
670.06	2238.00
670.40	2239.00
670.73	2251.00
671.06	2225.00
671.39	2208.00
671.72	2210.00
672.05	2209.00
672.38	2184.00
672.71	2183.00
673.04	2167.00
673.37	2141.00
673.70	2168.00
674.03	2151.00
674.36	2155.00
674.69	2149.00
675.02	2129.00
675.35	2128.00
675.68	2092.00
676.01	2112.00
676.34	2101.00
676.67	2111.00
677.00	2114.00
677.33	2082.00
677.66	2088.00
677.99	2076.00
678.32	2090.00
678.65	2076.00
678.98	2041.00
679.31	2078.00
679.64	2049.00
679.97	2036.00
680.30	2011.00
680.63	2008.00
680.96	2035.00
681.29	2018.00
681.62	1984.00
681.95	1994.00
682.28	1995.00
682.61	1992.00
682.94	1977.00
683.27	1982.00
683.60	1955.00
683.93	1929.00
684.25	1964.00
684.58	1935.00
684.91	1913.00
685.24	1922.00
685.57	1886.00
685.90	1908.00
686.23	1891.00
686.56	1901.00
686.89	1899.00
687.21	1889.00
687.54	1881.00
687.87	1858.00
688.20	1866.00
688.53	1863.00
688.86	1810.00
689.19	1872.00
689.51	1848.00
689.84	1845.00
690.17	1806.00
690.50	1833.00
690.83	1810.00
691.16	1792.00
691.48	1776.00
691.81	1752.00
692.14	1778.00
692.47	1765.00
692.80	1740.00
693.12	1746.00
693.45	1750.00
693.78	1744.00
694.11	1734.00
694.44	1704.00
694.76	1715.00
695.09	1690.00
695.42	1686.00
695.75	1715.00
696.07	1702.00
696.40	1676.00
696.73	1650.00
697.06	1655.00
697.38	1656.00
697.71	1642.00
698.04	1611.00
698.37	1623.00
698.69	1616.00
699.02	1617.00
699.35	1580.00
699.67	1613.00
700.00	1602.00
700.33	1562.00
700.66	1560.00
700.98	1577.00
701.31	1567.00
701.64	1538.00
701.96	1538.00
702.29	1541.00
702.62	1526.00
702.94	1525.00
703.27	1516.00
703.60	1495.00
703.92	1497.00
704.25	1496.00
704.58	1478.00
704.90	1467.00
705.23	1456.00
705.56	1458.00
705.88	1448.00
706.21	1440.00
706.53	1424.00
706.86	1397.00
707.19	1380.00
707.51	1400.00
707.84	1395.00
708.16	1401.00
708.49	1390.00
708.82	1403.00
709.14	1355.00
709.47	1362.00
709.79	1371.00
710.12	1341.00
710.45	1318.00
710.77	1332.00
711.10	1327.00
711.42	1310.00
711.75	1295.00
712.07	1273.00
712.40	1290.00
712.72	1266.00
713.05	1251.00
713.37	1249.00
713.70	1259.00
714.03	1246.00
714.35	1229.00
714.68	1216.00
715.00	1239.00
715.33	1192.00
715.65	1171.00
715.98	1178.00
716.30	1167.00
716.63	1144.00
716.95	1153.00
717.28	1134.00
717.60	1140.00
717.92	1141.00
718.25	1114.00
718.57	1111.00
718.90	1088.00
719.22	1084.00
719.55	1085.00
719.87	1048.00
720.20	1059.00
720.52	1060.00
720.84	1052.00
721.17	1052.00
721.49	1031.00
721.82	1028.00
722.14	1007.00
722.47	1023.00
722.79	989.00
723.11	979.00
723.44	992.00
723.76	978.00
724.09	960.00
724.41	954.00
724.73	966.00
725.06	949.00
725.38	945.00
725.70	907.00
726.03	938.00
726.35	940.00
726.67	935.00
727.00	919.00
727.32	918.00
727.65	889.00
727.97	902.00
728.29	905.00
728.61	879.00
728.94	889.00
729.26	862.00
729.58	874.00
729.91	862.00
730.23	873.00
730.55	858.00
730.88	854.00
731.20	850.00
731.52	847.00
731.84	845.00
732.17	863.00
732.49	825.00
732.81	836.00
733.14	824.00
733.46	830.00
733.78	830.00
734.10	819.00
734.43	819.00
734.75	791.00
735.07	782.00
735.39	787.00
735.72	804.00
736.04	795.00
736.36	786.00
736.68	774.00
737.00	780.00
737.33	775.00
737.65	789.00
737.97	775.00
738.29	780.00
738.61	765.00
738.94	752.00
739.26	763.00
739.58	740.00
739.90	756.00
740.22	739.00
740.54	740.00
740.87	743.00
741.19	713.00
741.51	731.00
741.83	717.00
742.15	709.00
742.47	713.00
742.79	719.00
743.12	706.00
743.44	711.00
743.76	694.00
744.08	682.00
744.40	695.00
744.72	692.00
745.04	680.00
745.36	679.00
745.68	684.00
746.00	667.00
746.33	685.00
746.65	671.00
746.97	671.00
747.29	657.00
747.61	659.00
747.93	659.00
748.25	659.00
748.57	649.00
748.89	651.00
749.21	639.00
749.53	640.00
749.85	632.00
750.17	639.00
750.49	620.00
750.81	623.00
751.13	627.00
751.45	607.00
751.77	618.00
752.09	608.00
752.41	603.00
752.73	605.00
753.05	604.00
753.37	613.00
753.69	592.00
754.01	599.00
754.33	597.00
754.65	584.00
754.97	585.00
755.29	578.00
755.61	570.00
755.93	573.00
756.25	577.00
756.57	573.00
756.89	578.00
757.21	566.00
757.53	568.00
757.84	562.00
758.16	567.00
758.48	563.00
758.80	558.00
759.12	558.00
759.44	552.00
759.76	552.00
760.08	548.00
760.40	549.00
760.71	550.00
761.03	539.00
761.35	526.00
761.67	539.00
761.99	535.00
762.31	525.00
762.63	515.00
762.94	530.00
763.26	523.00
763.58	522.00
763.90	511.00
764.22	516.00
764.54	516.00
764.85	507.00
765.17	507.00
765.49	504.00
765.81	490.00
766.13	499.00
766.44	498.00
766.76	495.00
767.08	494.00
767.40	487.00
767.72	493.00
768.03	478.00
768.35	489.00
768.67	482.00
768.99	472.00
769.30	477.00
769.62	478.00
769.94	471.00
770.26	473.00
770.57	460.00
770.89	470.00
771.21	474.00
771.53	463.00
771.84	453.00
772.16	452.00
772.48	460.00
772.79	456.00
773.11	445.00
773.43	453.00
773.75	442.00
774.06	456.00
774.38	439.00
774.70	437.00
775.01	424.00
775.33	443.00
775.65	430.00
775.96	439.00
776.28	426.00
776.59	434.00
776.91	426.00
777.23	434.00
777.54	415.00
777.86	423.00
778.18	423.00
778.49	424.00
778.81	405.00
779.13	409.00
779.44	401.00
779.76	406.00
780.07	413.00
780.39	392.00
780.71	392.00
781.02	400.00
781.34	403.00
781.65	391.00
781.97	380.00
782.28	390.00
782.60	385.00
782.91	380.00
783.23	382.00
783.55	400.00
783.86	384.00
784.18	383.00
784.49	371.00
784.81	370.00
785.12	368.00
785.44	381.00
785.75	365.00
786.07	368.00
786.38	361.00
786.70	366.00
787.01	357.00
787.33	363.00
787.64	365.00
787.96	363.00
788.27	354.00
788.59	364.00
788.90	356.00
789.22	358.00
789.53	347.00
789.85	358.00
790.16	356.00
790.47	352.00
790.79	349.00
791.10	348.00
791.42	347.00
791.73	352.00
792.05	357.00
792.36	342.00
792.67	351.00
792.99	347.00
793.30	364.00
793.62	343.00
793.93	362.00
794.24	346.00
794.56	347.00
794.87	340.00
795.18	335.00
795.50	342.00
795.81	344.00
796.13	354.00
796.44	349.00
796.75	338.00
797.07	351.00
797.38	343.00
797.69	339.00
798.01	340.00
798.32	341.00
798.63	345.00
798.95	329.00
799.26	347.00
799.57	346.00
799.89	340.00
800.20	334.00
800.51	342.00
800.82	326.00
801.14	331.00
801.45	345.00
801.76	330.00
802.08	341.00
802.39	346.00
802.70	325.00
803.01	318.00
803.33	312.00
803.64	333.00
803.95	316.00
804.26	327.00
804.57	317.00
804.89	331.00
805.20	326.00
805.51	322.00
805.82	329.00
806.14	315.00
806.45	324.00
806.76	318.00
807.07	315.00
807.38	325.00
807.70	310.00
808.01	312.00
808.32	316.00
808.63	320.00
808.94	310.00
809.25	324.00
809.57	317.00
809.88	310.00
810.19	305.00
810.50	304.00
810.81	316.00
811.12	309.00
811.43	307.00
811.75	316.00
812.06	307.00
812.37	301.00
812.68	307.00
812.99	313.00
813.30	301.00
813.61	301.00
813.92	298.00
814.23	314.00
814.54	306.00
814.85	291.00
815.17	307.00
815.48	291.00
815.79	296.00
816.10	284.00
816.41	288.00
816.72	299.00
817.03	295.00
817.34	287.00
817.65	301.00
817.96	296.00
818.27	309.00
818.58	284.00
818.89	296.00
819.20	301.00
819.51	302.00
819.82	297.00
820.13	291.00
820.44	284.00
820.75	292.00
821.06	300.00
821.37	296.00
821.68	286.00
821.99	302.00
822.30	282.00
822.61	289.00
822.92	294.00
823.23	284.00
823.54	295.00
823.85	278.00
824.15	284.00
824.46	288.00
824.77	280.00
825.08	296.00
825.39	285.00
825.70	288.00
826.01	277.00
826.32	275.00
826.63	297.00
826.94	278.00
827.24	288.00
827.55	287.00
827.86	286.00
828.17	292.00
828.48	291.00
828.79	297.00
829.10	289.00
829.41	281.00
829.71	283.00
830.02	279.00
830.33	276.00
830.64	290.00
830.95	280.00
831.25	283.00
831.56	293.00
831.87	287.00
832.18	281.00
832.49	277.00
832.80	286.00
833.10	284.00
833.41	290.00
833.72	299.00
834.03	276.00
834.33	294.00
834.64	283.00
834.95	281.00
835.26	303.00
835.56	292.00
835.87	292.00
836.18	287.00
836.49	293.00
836.79	290.00
837.10	297.00
837.41	290.00
837.72	283.00
838.02	276.00
838.33	297.00
838.64	294.00
838.94	299.00
839.25	299.00
839.56	287.00
839.86	300.00
840.17	299.00
840.48	295.00
840.78	289.00
841.09	304.00
841.40	294.00
841.70	302.00
842.01	301.00
842.32	295.00
842.62	315.00
842.93	303.00
843.24	313.00
843.54	313.00
843.85	304.00
844.15	306.00
844.46	314.00
844.77	313.00
845.07	321.00
845.38	311.00
845.68	316.00
845.99	319.00
846.30	311.00
846.60	306.00
846.91	309.00
847.21	316.00
847.52	330.00
847.82	327.00
848.13	314.00
848.43	312.00
848.74	315.00
849.05	315.00
849.35	321.00
849.66	325.00
849.96	321.00
850.27	305.00
850.57	323.00
850.88	316.00
851.18	330.00
851.49	333.00
851.79	332.00
852.10	334.00
852.40	328.00
852.71	332.00
853.01	322.00
853.32	341.00
853.62	337.00
853.92	336.00
854.23	330.00
854.53	346.00
854.84	338.00
855.14	329.00
855.45	345.00
855.75	338.00
856.05	343.00
856.36	339.00
856.66	332.00
856.97	331.00
857.27	341.00
857.57	345.00
857.88	340.00
858.18	342.00
858.49	350.00
858.79	344.00
859.09	346.00
859.40	348.00
859.70	342.00
860.00	347.00
860.31	337.00
860.61	357.00
860.92	358.00
861.22	355.00
861.52	349.00
861.82	341.00
862.13	360.00
862.43	355.00
862.73	348.00
863.04	362.00
863.34	352.00
863.64	358.00
863.95	350.00
864.25	367.00
864.55	372.00
864.85	353.00
865.16	364.00
865.46	375.00
865.76	356.00
866.07	366.00
866.37	367.00
866.67	365.00
866.97	352.00
867.27	369.00
867.58	378.00
867.88	373.00
868.18	372.00
868.48	375.00
868.79	375.00
869.09	380.00
869.39	362.00
869.69	361.00
869.99	366.00
870.30	364.00
870.60	364.00
870.90	366.00
871.20	361.00
871.50	371.00
871.80	371.00
872.11	374.00
872.41	379.00
872.71	373.00
873.01	357.00
873.31	361.00
873.61	364.00
873.91	363.00
874.21	358.00
874.52	369.00
874.82	374.00
875.12	369.00
875.42	361.00
875.72	367.00
876.02	373.00
876.32	370.00
876.62	372.00
876.92	369.00
877.22	371.00
877.52	370.00
877.83	366.00
878.13	370.00
878.43	362.00
878.73	376.00
879.03	374.00
879.33	380.00
879.63	380.00
879.93	380.00
880.23	383.00
880.53	369.00
880.83	381.00
881.13	368.00
881.43	380.00
881.73	389.00
882.03	382.00
882.33	386.00
882.63	395.00
882.93	389.00
883.23	381.00
883.53	401.00
883.83	391.00
884.13	405.00
884.42	389.00
884.72	388.00
885.02	395.00
885.32	388.00
885.62	406.00
885.92	400.00
886.22	408.00
886.52	396.00
886.82	388.00
887.12	412.00
887.42	423.00
887.72	418.00
888.01	420.00
888.31	412.00
888.61	410.00
888.91	413.00
889.21	422.00
889.51	424.00
889.81	426.00
890.10	424.00
890.40	426.00
890.70	436.00
891.00	438.00
891.30	433.00
891.60	434.00
891.89	439.00
892.19	432.00
892.49	446.00
892.79	431.00
893.09	437.00
893.38	432.00
893.68	437.00
893.98	448.00
894.28	438.00
894.58	454.00
894.87	437.00
895.17	434.00
895.47	458.00
895.77	451.00
896.06	447.00
896.36	445.00
896.66	449.00
896.96	443.00
897.25	450.00
897.55	448.00
897.85	442.00
898.14	450.00
898.44	451.00
898.74	450.00
899.04	446.00
899.33	452.00
899.63	458.00
899.93	455.00
900.22	463.00
900.52	459.00
900.82	451.00
901.11	456.00
901.41	471.00
901.71	439.00
902.00	462.00
902.30	457.00
902.59	454.00
902.89	456.00
903.19	461.00
903.48	442.00
903.78	464.00
904.08	443.00
904.37	457.00
904.67	453.00
904.96	451.00
905.26	450.00
905.55	456.00
905.85	454.00
906.15	462.00
906.44	455.00
906.74	455.00
907.03	442.00
907.33	433.00
907.62	447.00
907.92	443.00
908.21	456.00
908.51	454.00
908.80	446.00
909.10	432.00
909.40	428.00
909.69	438.00
909.99	438.00
910.28	432.00
910.57	429.00
910.87	443.00
911.16	431.00
911.46	424.00
911.75	433.00
912.05	437.00
912.34	438.00
912.64	429.00
912.93	424.00
913.23	416.00
913.52	423.00
913.82	407.00
914.11	419.00
914.40	418.00
914.70	409.00
914.99	420.00
915.29	408.00
915.58	408.00
915.87	423.00
916.17	417.00
916.46	406.00
916.76	418.00
917.05	407.00
917.34	400.00
917.64	396.00
917.93	393.00
918.22	398.00
918.52	388.00
918.81	387.00
919.10	396.00
919.40	387.00
919.69	381.00
919.98	400.00
920.28	370.00
920.57	386.00
920.86	374.00
921.16	379.00
921.45	373.00
921.74	373.00
922.04	359.00
922.33	362.00
922.62	365.00
922.91	344.00
923.21	366.00
923.50	356.00
923.79	357.00
924.08	355.00
924.38	337.00
924.67	341.00
924.96	346.00
925.25	346.00
925.55	340.00
925.84	330.00
926.13	324.00
926.42	336.00
926.71	326.00
927.01	310.00
927.30	314.00
927.59	317.00
927.88	319.00
928.17	317.00
928.46	304.00
928.76	290.00
929.05	298.00
929.34	298.00
929.63	282.00
929.92	310.00
930.21	280.00
930.50	282.00
930.80	281.00
931.09	273.00
931.38	274.00
931.67	259.00
931.96	267.00
932.25	251.00
932.54	256.00
932.83	246.00
933.12	236.00
933.41	238.00
933.71	226.00
934.00	225.00
934.29	212.00
934.58	217.00
934.87	200.00
935.16	192.00
935.45	193.00
935.74	189.00
936.03	181.00
936.32	179.00
936.61	170.00
936.90	150.00
937.19	152.00
937.48	144.00
937.77	136.00
938.06	133.00
938.35	125.00
938.64	124.00
938.93	121.00
939.22	120.00
939.51	114.00
939.80	108.00
940.09	101.00
940.38	95.00
940.67	99.00
940.96	96.00
941.25	90.00
941.53	90.00
941.82	91.00
942.11	86.00
942.40	89.00
942.69	87.00
942.98	74.00
943.27	81.00
943.56	85.00
943.85	81.00
944.14	72.00
944.42	81.00
944.71	83.00
945.00	79.00
945.29	80.00
945.58	82.00
945.87	80.00
946.16	78.00
946.44	89.00
946.73	74.00
947.02	88.00
947.31	81.00
947.60	85.00
947.89	92.00
948.17	81.00
948.46	83.00
948.75	90.00
949.04	96.00
949.32	95.00
949.61	85.00
949.90	91.00
950.19	99.00
950.48	102.00
950.76	106.00
951.05	100.00
951.34	102.00
951.63	107.00
951.91	108.00
952.20	108.00
952.49	101.00
952.77	107.00
953.06	103.00
953.35	112.00
953.64	111.00
953.92	119.00
954.21	113.00
954.50	116.00
954.78	105.00
955.07	120.00
955.36	117.00
955.64	115.00
955.93	122.00
956.22	105.00
956.50	124.00
956.79	119.00
957.08	123.00
957.36	125.00
957.65	121.00
957.93	126.00
958.22	127.00
958.51	130.00
958.79	128.00
959.08	139.00
959.36	129.00
959.65	132.00
959.94	132.00
960.22	134.00
960.51	129.00
960.79	134.00
961.08	130.00
961.36	130.00
961.65	133.00
961.94	133.00
962.22	131.00
962.51	137.00
962.79	139.00
963.08	134.00
963.36	129.00
963.65	138.00
963.93	134.00
964.22	140.00
964.50	134.00
964.79	146.00
965.07	143.00
965.36	128.00
965.64	143.00
965.93	126.00
966.21	132.00
966.49	140.00
966.78	131.00
967.06	140.00
967.35	137.00
967.63	139.00
967.92	140.00
968.20	140.00
968.48	146.00
968.77	144.00
969.05	129.00
969.34	127.00
969.62	136.00
969.90	138.00
970.19	138.00
970.47	144.00
970.76	143.00
971.04	132.00
971.32	151.00
971.61	142.00
971.89	139.00
972.17	143.00
972.46	133.00
972.74	134.00
973.02	142.00
973.31	132.00
973.59	133.00
973.87	117.00
974.16	124.00
974.44	140.00
974.72	129.00
975.00	136.00
975.29	137.00
975.57	139.00
975.85	128.00
976.14	123.00
976.42	124.00
976.70	131.00
976.98	126.00
977.27	124.00
977.55	132.00
977.83	127.00
978.11	118.00
978.39	131.00
978.68	126.00
978.96	129.00
979.24	121.00
979.52	131.00
979.81	128.00
980.09	121.00
980.37	123.00
980.65	125.00
980.93	127.00
981.21	131.00
981.50	121.00
981.78	121.00
982.06	118.00
982.34	112.00
982.62	121.00
982.90	109.00
983.18	114.00
983.47	108.00
983.75	111.00
984.03	107.00
984.31	112.00
984.59	118.00
984.87	120.00
985.15	110.00
985.43	112.00
985.71	106.00
985.99	115.00
986.27	108.00
986.55	113.00
986.84	109.00
987.12	105.00
987.40	110.00
987.68	113.00
987.96	102.00
988.24	101.00
988.52	110.00
988.80	108.00
989.08	108.00
989.36	103.00
989.64	91.00
989.92	90.00
990.20	99.00
990.48	96.00
990.76	92.00
991.04	94.00
991.32	97.00
991.60	92.00
991.88	88.00
992.16	93.00
992.43	91.00
992.71	96.00
992.99	90.00
993.27	97.00
993.55	97.00
993.83	92.00
994.11	82.00
994.39	87.00
994.67	86.00
994.95	97.00
995.23	84.00
995.50	88.00
995.78	87.00
996.06	77.00
996.34	99.00
996.62	86.00
996.90	87.00
997.18	82.00
997.45	75.00
997.73	77.00
998.01	75.00
998.29	81.00
998.57	74.00
998.85	77.00
999.12	69.00
999.40	81.00
999.68	78.00
999.96	79.00
1000.24	80.00
1000.51	77.00
1000.79	75.00
1001.07	71.00
1001.35	76.00
1001.62	72.00
1001.90	67.00
1002.18	72.00
1002.46	66.00
1002.73	64.00
1003.01	68.00
1003.29	69.00
1003.56	72.00
1003.84	70.00
1004.12	72.00
1004.40	75.00
1004.67	66.00
1004.95	57.00
>>>>>End Processed Spectral Data<<<<<
