SpectraSuite Data File
++++++++++++++++++++++++++++++++++++
Date: Fri Jul 12 13:56:36 ART 2024
User: Javier
Dark Spectrum Present: Yes
Reference Spectrum Present: No
Number of Sampled Component Spectra: 1
Spectrometers: ADUD7991
Integration Time (usec): 30000 (ADUD7991)
Spectra Averaged: 1 (ADUD7991)
Boxcar Smoothing: 0 (ADUD7991)
Correct for Electrical Dark: No (ADUD7991)
Strobe/Lamp Enabled: No (ADUD7991)
Correct for Detector Non-linearity: No (ADUD7991)
Correct for Stray Light: No (ADUD7991)
Number of Pixels in Processed Spectrum: 2048
>>>>>Begin Processed Spectral Data<<<<<
338.97	0.00
339.33	-3.00
339.70	-2.00
340.06	2.00
340.42	-5.00
340.79	-4.00
341.15	7.00
341.52	-1.00
341.88	5.00
342.24	0.00
342.61	-2.00
342.97	0.00
343.33	-1.00
343.70	1.00
344.06	-2.00
344.43	-1.00
344.79	2.00
345.15	-4.00
345.52	-2.00
345.88	1.00
346.24	1.00
346.61	-5.00
346.97	1.00
347.33	11.00
347.70	-3.00
348.06	4.00
348.42	0.00
348.79	-3.00
349.15	3.00
349.51	6.00
349.88	-3.00
350.24	-3.00
350.60	-6.00
350.97	2.00
351.33	-2.00
351.69	9.00
352.05	-1.00
352.42	4.00
352.78	0.00
353.14	-2.00
353.51	-2.00
353.87	-5.00
354.23	1.00
354.60	5.00
354.96	0.00
355.32	-3.00
355.68	3.00
356.05	0.00
356.41	6.00
356.77	1.00
357.13	-4.00
357.50	1.00
357.86	-2.00
358.22	-6.00
358.58	0.00
358.95	-3.00
359.31	0.00
359.67	-1.00
360.03	3.00
360.40	-14.00
360.76	-5.00
361.12	3.00
361.48	3.00
361.85	-2.00
362.21	-5.00
362.57	-2.00
362.93	-6.00
363.29	5.00
363.66	1.00
364.02	1.00
364.38	0.00
364.74	-11.00
365.10	-1.00
365.47	-3.00
365.83	10.00
366.19	-2.00
366.55	4.00
366.91	6.00
367.28	-3.00
367.64	8.00
368.00	1.00
368.36	2.00
368.72	-3.00
369.08	-3.00
369.45	2.00
369.81	-8.00
370.17	0.00
370.53	0.00
370.89	3.00
371.25	-3.00
371.62	4.00
371.98	-4.00
372.34	-4.00
372.70	4.00
373.06	1.00
373.42	0.00
373.78	2.00
374.14	3.00
374.51	1.00
374.87	-1.00
375.23	1.00
375.59	4.00
375.95	-2.00
376.31	-12.00
376.67	-2.00
377.03	-4.00
377.39	-8.00
377.76	0.00
378.12	6.00
378.48	-3.00
378.84	-7.00
379.20	0.00
379.56	2.00
379.92	7.00
380.28	7.00
380.64	1.00
381.00	0.00
381.36	-3.00
381.72	10.00
382.08	-6.00
382.45	7.00
382.81	-1.00
383.17	0.00
383.53	-5.00
383.89	-2.00
384.25	-1.00
384.61	8.00
384.97	0.00
385.33	1.00
385.69	6.00
386.05	-2.00
386.41	1.00
386.77	2.00
387.13	-7.00
387.49	-4.00
387.85	1.00
388.21	-4.00
388.57	1.00
388.93	1.00
389.29	0.00
389.65	-1.00
390.01	5.00
390.37	2.00
390.73	5.00
391.09	-2.00
391.45	2.00
391.81	3.00
392.17	0.00
392.53	9.00
392.89	-5.00
393.25	4.00
393.61	2.00
393.97	5.00
394.33	0.00
394.69	-2.00
395.05	5.00
395.41	3.00
395.77	6.00
396.12	6.00
396.48	1.00
396.84	1.00
397.20	-1.00
397.56	0.00
397.92	2.00
398.28	3.00
398.64	5.00
399.00	8.00
399.36	1.00
399.72	13.00
400.08	4.00
400.44	5.00
400.79	7.00
401.15	0.00
401.51	10.00
401.87	12.00
402.23	7.00
402.59	4.00
402.95	2.00
403.31	11.00
403.67	10.00
404.02	6.00
404.38	2.00
404.74	0.00
405.10	5.00
405.46	6.00
405.82	7.00
406.18	5.00
406.53	1.00
406.89	4.00
407.25	7.00
407.61	4.00
407.97	10.00
408.33	17.00
408.69	11.00
409.04	10.00
409.40	15.00
409.76	9.00
410.12	21.00
410.48	15.00
410.83	21.00
411.19	20.00
411.55	10.00
411.91	15.00
412.27	16.00
412.63	17.00
412.98	18.00
413.34	21.00
413.70	6.00
414.06	26.00
414.41	20.00
414.77	26.00
415.13	16.00
415.49	24.00
415.85	6.00
416.20	12.00
416.56	17.00
416.92	20.00
417.28	16.00
417.63	11.00
417.99	10.00
418.35	10.00
418.71	19.00
419.06	19.00
419.42	16.00
419.78	26.00
420.14	27.00
420.49	23.00
420.85	17.00
421.21	18.00
421.57	26.00
421.92	24.00
422.28	24.00
422.64	25.00
422.99	18.00
423.35	22.00
423.71	22.00
424.06	39.00
424.42	25.00
424.78	25.00
425.14	31.00
425.49	23.00
425.85	31.00
426.21	27.00
426.56	32.00
426.92	22.00
427.28	29.00
427.63	28.00
427.99	31.00
428.35	33.00
428.70	30.00
429.06	36.00
429.42	32.00
429.77	29.00
430.13	34.00
430.49	33.00
430.84	29.00
431.20	32.00
431.55	28.00
431.91	24.00
432.27	30.00
432.62	29.00
432.98	28.00
433.34	35.00
433.69	34.00
434.05	31.00
434.40	28.00
434.76	34.00
435.12	36.00
435.47	29.00
435.83	37.00
436.18	40.00
436.54	39.00
436.90	29.00
437.25	34.00
437.61	43.00
437.96	39.00
438.32	44.00
438.67	39.00
439.03	39.00
439.39	32.00
439.74	42.00
440.10	45.00
440.45	43.00
440.81	46.00
441.16	37.00
441.52	37.00
441.87	48.00
442.23	43.00
442.59	39.00
442.94	35.00
443.30	42.00
443.65	41.00
444.01	45.00
444.36	43.00
444.72	43.00
445.07	41.00
445.43	43.00
445.78	45.00
446.14	46.00
446.49	49.00
446.85	48.00
447.20	41.00
447.56	45.00
447.91	48.00
448.27	49.00
448.62	42.00
448.98	54.00
449.33	52.00
449.69	50.00
450.04	42.00
450.39	51.00
450.75	51.00
451.10	51.00
451.46	53.00
451.81	48.00
452.17	48.00
452.52	55.00
452.88	55.00
453.23	54.00
453.58	52.00
453.94	51.00
454.29	57.00
454.65	49.00
455.00	53.00
455.36	62.00
455.71	50.00
456.06	53.00
456.42	58.00
456.77	59.00
457.13	58.00
457.48	50.00
457.83	56.00
458.19	53.00
458.54	63.00
458.90	56.00
459.25	57.00
459.60	59.00
459.96	51.00
460.31	54.00
460.66	57.00
461.02	59.00
461.37	55.00
461.73	50.00
462.08	63.00
462.43	60.00
462.79	56.00
463.14	49.00
463.49	55.00
463.85	62.00
464.20	58.00
464.55	63.00
464.91	59.00
465.26	66.00
465.61	64.00
465.97	67.00
466.32	60.00
466.67	68.00
467.03	66.00
467.38	67.00
467.73	62.00
468.08	63.00
468.44	69.00
468.79	77.00
469.14	68.00
469.50	63.00
469.85	70.00
470.20	70.00
470.55	80.00
470.91	72.00
471.26	68.00
471.61	69.00
471.97	71.00
472.32	72.00
472.67	71.00
473.02	75.00
473.38	84.00
473.73	77.00
474.08	81.00
474.43	78.00
474.78	77.00
475.14	77.00
475.49	84.00
475.84	86.00
476.19	74.00
476.55	88.00
476.90	92.00
477.25	89.00
477.60	83.00
477.95	89.00
478.31	89.00
478.66	94.00
479.01	88.00
479.36	96.00
479.71	96.00
480.07	83.00
480.42	97.00
480.77	91.00
481.12	97.00
481.47	107.00
481.82	99.00
482.18	110.00
482.53	103.00
482.88	99.00
483.23	109.00
483.58	110.00
483.93	105.00
484.29	97.00
484.64	104.00
484.99	109.00
485.34	105.00
485.69	110.00
486.04	115.00
486.39	106.00
486.74	116.00
487.10	117.00
487.45	119.00
487.80	104.00
488.15	118.00
488.50	125.00
488.85	124.00
489.20	130.00
489.55	124.00
489.90	123.00
490.26	120.00
490.61	124.00
490.96	124.00
491.31	116.00
491.66	124.00
492.01	118.00
492.36	124.00
492.71	133.00
493.06	139.00
493.41	134.00
493.76	121.00
494.11	131.00
494.46	138.00
494.81	131.00
495.16	130.00
495.51	143.00
495.86	138.00
496.21	138.00
496.56	143.00
496.91	140.00
497.27	141.00
497.62	138.00
497.97	134.00
498.32	139.00
498.67	143.00
499.02	144.00
499.37	143.00
499.72	159.00
500.07	139.00
500.42	158.00
500.77	145.00
501.11	156.00
501.46	142.00
501.81	147.00
502.16	141.00
502.51	149.00
502.86	150.00
503.21	147.00
503.56	149.00
503.91	160.00
504.26	157.00
504.61	163.00
504.96	167.00
505.31	151.00
505.66	157.00
506.01	164.00
506.36	159.00
506.71	168.00
507.06	158.00
507.41	168.00
507.75	166.00
508.10	166.00
508.45	170.00
508.80	165.00
509.15	169.00
509.50	157.00
509.85	168.00
510.20	166.00
510.55	169.00
510.90	170.00
511.24	173.00
511.59	186.00
511.94	168.00
512.29	173.00
512.64	174.00
512.99	178.00
513.34	175.00
513.68	180.00
514.03	178.00
514.38	182.00
514.73	179.00
515.08	183.00
515.43	190.00
515.77	182.00
516.12	191.00
516.47	176.00
516.82	188.00
517.17	190.00
517.52	203.00
517.86	196.00
518.21	187.00
518.56	192.00
518.91	189.00
519.26	192.00
519.60	197.00
519.95	199.00
520.30	190.00
520.65	182.00
521.00	187.00
521.34	195.00
521.69	198.00
522.04	204.00
522.39	202.00
522.73	198.00
523.08	202.00
523.43	207.00
523.78	201.00
524.12	206.00
524.47	205.00
524.82	205.00
525.17	208.00
525.51	205.00
525.86	204.00
526.21	208.00
526.56	219.00
526.90	202.00
527.25	211.00
527.60	213.00
527.94	218.00
528.29	217.00
528.64	207.00
528.99	217.00
529.33	212.00
529.68	210.00
530.03	208.00
530.37	212.00
530.72	230.00
531.07	213.00
531.41	230.00
531.76	217.00
532.11	225.00
532.45	226.00
532.80	224.00
533.15	235.00
533.49	222.00
533.84	223.00
534.19	227.00
534.53	226.00
534.88	230.00
535.23	221.00
535.57	238.00
535.92	242.00
536.26	220.00
536.61	231.00
536.96	227.00
537.30	224.00
537.65	234.00
537.99	233.00
538.34	229.00
538.69	229.00
539.03	234.00
539.38	234.00
539.72	237.00
540.07	238.00
540.42	232.00
540.76	237.00
541.11	241.00
541.45	234.00
541.80	242.00
542.14	241.00
542.49	247.00
542.84	246.00
543.18	234.00
543.53	244.00
543.87	248.00
544.22	234.00
544.56	247.00
544.91	243.00
545.25	241.00
545.60	250.00
545.94	257.00
546.29	242.00
546.63	265.00
546.98	255.00
547.32	258.00
547.67	254.00
548.01	259.00
548.36	253.00
548.70	257.00
549.05	254.00
549.39	254.00
549.74	246.00
550.08	249.00
550.43	258.00
550.77	253.00
551.12	250.00
551.46	260.00
551.81	252.00
552.15	255.00
552.50	255.00
552.84	250.00
553.18	258.00
553.53	261.00
553.87	260.00
554.22	249.00
554.56	261.00
554.91	257.00
555.25	255.00
555.59	253.00
555.94	260.00
556.28	276.00
556.63	262.00
556.97	254.00
557.32	263.00
557.66	270.00
558.00	261.00
558.35	263.00
558.69	275.00
559.03	268.00
559.38	266.00
559.72	265.00
560.07	273.00
560.41	273.00
560.75	270.00
561.10	271.00
561.44	274.00
561.78	269.00
562.13	273.00
562.47	271.00
562.81	274.00
563.16	279.00
563.50	276.00
563.84	272.00
564.19	260.00
564.53	274.00
564.87	269.00
565.22	277.00
565.56	281.00
565.90	281.00
566.25	273.00
566.59	286.00
566.93	285.00
567.28	265.00
567.62	274.00
567.96	281.00
568.30	276.00
568.65	279.00
568.99	291.00
569.33	287.00
569.68	278.00
570.02	277.00
570.36	283.00
570.70	277.00
571.05	278.00
571.39	289.00
571.73	272.00
572.07	275.00
572.42	290.00
572.76	287.00
573.10	285.00
573.44	272.00
573.78	280.00
574.13	289.00
574.47	292.00
574.81	283.00
575.15	275.00
575.49	286.00
575.84	297.00
576.18	283.00
576.52	283.00
576.86	296.00
577.20	283.00
577.55	283.00
577.89	272.00
578.23	272.00
578.57	270.00
578.91	272.00
579.25	274.00
579.60	282.00
579.94	274.00
580.28	271.00
580.62	279.00
580.96	266.00
581.30	292.00
581.65	292.00
581.99	278.00
582.33	282.00
582.67	284.00
583.01	283.00
583.35	276.00
583.69	282.00
584.03	284.00
584.37	302.00
584.72	284.00
585.06	306.00
585.40	295.00
585.74	280.00
586.08	288.00
586.42	280.00
586.76	281.00
587.10	297.00
587.44	298.00
587.78	285.00
588.12	295.00
588.46	307.00
588.80	293.00
589.15	290.00
589.49	300.00
589.83	286.00
590.17	291.00
590.51	295.00
590.85	289.00
591.19	297.00
591.53	291.00
591.87	300.00
592.21	293.00
592.55	292.00
592.89	286.00
593.23	293.00
593.57	292.00
593.91	281.00
594.25	287.00
594.59	284.00
594.93	285.00
595.27	281.00
595.61	296.00
595.95	293.00
596.29	302.00
596.63	282.00
596.97	290.00
597.31	282.00
597.65	288.00
597.99	293.00
598.32	297.00
598.66	304.00
599.00	292.00
599.34	279.00
599.68	286.00
600.02	296.00
600.36	298.00
600.70	291.00
601.04	294.00
601.38	291.00
601.72	285.00
602.06	280.00
602.40	281.00
602.73	290.00
603.07	297.00
603.41	306.00
603.75	296.00
604.09	298.00
604.43	291.00
604.77	288.00
605.11	301.00
605.45	284.00
605.78	283.00
606.12	284.00
606.46	297.00
606.80	293.00
607.14	285.00
607.48	290.00
607.81	290.00
608.15	301.00
608.49	294.00
608.83	298.00
609.17	301.00
609.51	294.00
609.84	295.00
610.18	290.00
610.52	290.00
610.86	285.00
611.20	291.00
611.53	279.00
611.87	292.00
612.21	287.00
612.55	299.00
612.89	275.00
613.22	295.00
613.56	287.00
613.90	277.00
614.24	295.00
614.57	297.00
614.91	280.00
615.25	284.00
615.59	288.00
615.92	281.00
616.26	291.00
616.60	293.00
616.94	290.00
617.27	287.00
617.61	295.00
617.95	280.00
618.29	290.00
618.62	285.00
618.96	292.00
619.30	288.00
619.63	298.00
619.97	294.00
620.31	293.00
620.64	289.00
620.98	283.00
621.32	275.00
621.66	277.00
621.99	292.00
622.33	286.00
622.67	289.00
623.00	285.00
623.34	292.00
623.68	286.00
624.01	280.00
624.35	291.00
624.68	291.00
625.02	300.00
625.36	287.00
625.69	285.00
626.03	290.00
626.37	270.00
626.70	287.00
627.04	285.00
627.37	293.00
627.71	281.00
628.05	289.00
628.38	296.00
628.72	284.00
629.05	285.00
629.39	281.00
629.73	282.00
630.06	282.00
630.40	279.00
630.73	275.00
631.07	269.00
631.41	283.00
631.74	292.00
632.08	277.00
632.41	290.00
632.75	292.00
633.08	279.00
633.42	286.00
633.75	281.00
634.09	277.00
634.42	282.00
634.76	281.00
635.09	290.00
635.43	276.00
635.76	269.00
636.10	281.00
636.43	274.00
636.77	277.00
637.10	268.00
637.44	277.00
637.77	272.00
638.11	278.00
638.44	282.00
638.78	286.00
639.11	267.00
639.45	262.00
639.78	280.00
640.12	274.00
640.45	266.00
640.79	273.00
641.12	265.00
641.46	263.00
641.79	259.00
642.12	277.00
642.46	284.00
642.79	263.00
643.13	261.00
643.46	263.00
643.80	274.00
644.13	270.00
644.46	278.00
644.80	270.00
645.13	279.00
645.47	265.00
645.80	279.00
646.13	260.00
646.47	262.00
646.80	266.00
647.13	265.00
647.47	275.00
647.80	260.00
648.14	265.00
648.47	266.00
648.80	261.00
649.14	263.00
649.47	257.00
649.80	264.00
650.14	266.00
650.47	260.00
650.80	255.00
651.14	256.00
651.47	262.00
651.80	258.00
652.14	255.00
652.47	251.00
652.80	251.00
653.14	257.00
653.47	243.00
653.80	262.00
654.13	258.00
654.47	255.00
654.80	257.00
655.13	259.00
655.47	250.00
655.80	245.00
656.13	248.00
656.46	248.00
656.80	251.00
657.13	243.00
657.46	262.00
657.79	243.00
658.13	250.00
658.46	246.00
658.79	250.00
659.12	254.00
659.45	255.00
659.79	248.00
660.12	237.00
660.45	232.00
660.78	242.00
661.12	241.00
661.45	248.00
661.78	240.00
662.11	244.00
662.44	238.00
662.77	259.00
663.11	244.00
663.44	232.00
663.77	230.00
664.10	239.00
664.43	243.00
664.77	241.00
665.10	243.00
665.43	253.00
665.76	245.00
666.09	228.00
666.42	241.00
666.75	228.00
667.08	246.00
667.42	241.00
667.75	236.00
668.08	237.00
668.41	226.00
668.74	235.00
669.07	232.00
669.40	231.00
669.73	235.00
670.06	233.00
670.40	231.00
670.73	222.00
671.06	226.00
671.39	237.00
671.72	231.00
672.05	234.00
672.38	231.00
672.71	225.00
673.04	228.00
673.37	235.00
673.70	231.00
674.03	234.00
674.36	232.00
674.69	233.00
675.02	226.00
675.35	218.00
675.68	212.00
676.01	225.00
676.34	235.00
676.67	229.00
677.00	227.00
677.33	221.00
677.66	229.00
677.99	224.00
678.32	215.00
678.65	230.00
678.98	220.00
679.31	212.00
679.64	219.00
679.97	232.00
680.30	221.00
680.63	223.00
680.96	228.00
681.29	219.00
681.62	213.00
681.95	218.00
682.28	213.00
682.61	215.00
682.94	225.00
683.27	211.00
683.60	205.00
683.93	212.00
684.25	209.00
684.58	202.00
684.91	208.00
685.24	215.00
685.57	217.00
685.90	206.00
686.23	200.00
686.56	209.00
686.89	200.00
687.21	203.00
687.54	219.00
687.87	215.00
688.20	210.00
688.53	201.00
688.86	210.00
689.19	205.00
689.51	206.00
689.84	209.00
690.17	220.00
690.50	207.00
690.83	209.00
691.16	206.00
691.48	203.00
691.81	211.00
692.14	206.00
692.47	197.00
692.80	197.00
693.12	200.00
693.45	205.00
693.78	213.00
694.11	194.00
694.44	206.00
694.76	210.00
695.09	194.00
695.42	196.00
695.75	202.00
696.07	191.00
696.40	194.00
696.73	196.00
697.06	195.00
697.38	189.00
697.71	200.00
698.04	195.00
698.37	194.00
698.69	198.00
699.02	193.00
699.35	196.00
699.67	191.00
700.00	193.00
700.33	193.00
700.66	194.00
700.98	186.00
701.31	182.00
701.64	189.00
701.96	205.00
702.29	190.00
702.62	185.00
702.94	178.00
703.27	190.00
703.60	183.00
703.92	176.00
704.25	175.00
704.58	180.00
704.90	183.00
705.23	173.00
705.56	177.00
705.88	173.00
706.21	180.00
706.53	178.00
706.86	176.00
707.19	178.00
707.51	185.00
707.84	181.00
708.16	178.00
708.49	181.00
708.82	175.00
709.14	176.00
709.47	177.00
709.79	185.00
710.12	175.00
710.45	176.00
710.77	177.00
711.10	178.00
711.42	175.00
711.75	164.00
712.07	170.00
712.40	168.00
712.72	168.00
713.05	168.00
713.37	173.00
713.70	166.00
714.03	161.00
714.35	156.00
714.68	160.00
715.00	164.00
715.33	165.00
715.65	163.00
715.98	167.00
716.30	168.00
716.63	159.00
716.95	158.00
717.28	161.00
717.60	154.00
717.92	156.00
718.25	151.00
718.57	153.00
718.90	153.00
719.22	155.00
719.55	155.00
719.87	146.00
720.20	155.00
720.52	141.00
720.84	144.00
721.17	154.00
721.49	158.00
721.82	148.00
722.14	139.00
722.47	143.00
722.79	142.00
723.11	149.00
723.44	143.00
723.76	140.00
724.09	140.00
724.41	132.00
724.73	132.00
725.06	137.00
725.38	146.00
725.70	137.00
726.03	132.00
726.35	151.00
726.67	144.00
727.00	135.00
727.32	143.00
727.65	135.00
727.97	145.00
728.29	123.00
728.61	129.00
728.94	138.00
729.26	133.00
729.58	128.00
729.91	138.00
730.23	130.00
730.55	127.00
730.88	139.00
731.20	132.00
731.52	132.00
731.84	133.00
732.17	131.00
732.49	123.00
732.81	130.00
733.14	137.00
733.46	129.00
733.78	127.00
734.10	130.00
734.43	135.00
734.75	134.00
735.07	125.00
735.39	136.00
735.72	132.00
736.04	120.00
736.36	125.00
736.68	131.00
737.00	122.00
737.33	130.00
737.65	132.00
737.97	128.00
738.29	136.00
738.61	134.00
738.94	126.00
739.26	129.00
739.58	125.00
739.90	131.00
740.22	124.00
740.54	125.00
740.87	122.00
741.19	125.00
741.51	126.00
741.83	128.00
742.15	128.00
742.47	129.00
742.79	124.00
743.12	128.00
743.44	122.00
743.76	123.00
744.08	122.00
744.40	119.00
744.72	128.00
745.04	116.00
745.36	122.00
745.68	122.00
746.00	117.00
746.33	128.00
746.65	122.00
746.97	122.00
747.29	121.00
747.61	135.00
747.93	128.00
748.25	122.00
748.57	122.00
748.89	126.00
749.21	134.00
749.53	127.00
749.85	127.00
750.17	123.00
750.49	111.00
750.81	127.00
751.13	123.00
751.45	126.00
751.77	131.00
752.09	125.00
752.41	130.00
752.73	114.00
753.05	125.00
753.37	133.00
753.69	113.00
754.01	129.00
754.33	124.00
754.65	122.00
754.97	124.00
755.29	128.00
755.61	118.00
755.93	119.00
756.25	108.00
756.57	123.00
756.89	126.00
757.21	131.00
757.53	116.00
757.84	117.00
758.16	125.00
758.48	121.00
758.80	129.00
759.12	126.00
759.44	131.00
759.76	124.00
760.08	116.00
760.40	135.00
760.71	115.00
761.03	128.00
761.35	127.00
761.67	127.00
761.99	125.00
762.31	116.00
762.63	119.00
762.94	122.00
763.26	119.00
763.58	121.00
763.90	125.00
764.22	132.00
764.54	134.00
764.85	128.00
765.17	125.00
765.49	119.00
765.81	123.00
766.13	128.00
766.44	130.00
766.76	128.00
767.08	131.00
767.40	120.00
767.72	123.00
768.03	129.00
768.35	126.00
768.67	135.00
768.99	124.00
769.30	127.00
769.62	133.00
769.94	125.00
770.26	123.00
770.57	118.00
770.89	134.00
771.21	131.00
771.53	130.00
771.84	124.00
772.16	138.00
772.48	132.00
772.79	127.00
773.11	125.00
773.43	143.00
773.75	137.00
774.06	137.00
774.38	128.00
774.70	135.00
775.01	139.00
775.33	131.00
775.65	133.00
775.96	134.00
776.28	130.00
776.59	135.00
776.91	129.00
777.23	137.00
777.54	133.00
777.86	140.00
778.18	135.00
778.49	133.00
778.81	128.00
779.13	136.00
779.44	141.00
779.76	129.00
780.07	132.00
780.39	136.00
780.71	144.00
781.02	141.00
781.34	147.00
781.65	135.00
781.97	140.00
782.28	137.00
782.60	152.00
782.91	139.00
783.23	143.00
783.55	145.00
783.86	144.00
784.18	140.00
784.49	144.00
784.81	141.00
785.12	138.00
785.44	152.00
785.75	150.00
786.07	141.00
786.38	150.00
786.70	142.00
787.01	136.00
787.33	152.00
787.64	138.00
787.96	149.00
788.27	156.00
788.59	154.00
788.90	144.00
789.22	143.00
789.53	153.00
789.85	146.00
790.16	152.00
790.47	154.00
790.79	143.00
791.10	160.00
791.42	166.00
791.73	165.00
792.05	165.00
792.36	152.00
792.67	168.00
792.99	162.00
793.30	166.00
793.62	160.00
793.93	173.00
794.24	166.00
794.56	168.00
794.87	172.00
795.18	170.00
795.50	168.00
795.81	168.00
796.13	169.00
796.44	171.00
796.75	173.00
797.07	175.00
797.38	181.00
797.69	166.00
798.01	183.00
798.32	176.00
798.63	182.00
798.95	166.00
799.26	183.00
799.57	187.00
799.89	186.00
800.20	200.00
800.51	190.00
800.82	180.00
801.14	190.00
801.45	183.00
801.76	181.00
802.08	188.00
802.39	192.00
802.70	193.00
803.01	190.00
803.33	191.00
803.64	196.00
803.95	194.00
804.26	187.00
804.57	199.00
804.89	201.00
805.20	208.00
805.51	209.00
805.82	203.00
806.14	203.00
806.45	212.00
806.76	218.00
807.07	214.00
807.38	213.00
807.70	202.00
808.01	200.00
808.32	202.00
808.63	219.00
808.94	216.00
809.25	226.00
809.57	215.00
809.88	211.00
810.19	220.00
810.50	212.00
810.81	222.00
811.12	215.00
811.43	220.00
811.75	218.00
812.06	224.00
812.37	214.00
812.68	217.00
812.99	227.00
813.30	227.00
813.61	223.00
813.92	230.00
814.23	234.00
814.54	231.00
814.85	233.00
815.17	229.00
815.48	234.00
815.79	235.00
816.10	227.00
816.41	234.00
816.72	232.00
817.03	234.00
817.34	235.00
817.65	239.00
817.96	238.00
818.27	241.00
818.58	248.00
818.89	254.00
819.20	250.00
819.51	252.00
819.82	256.00
820.13	245.00
820.44	253.00
820.75	247.00
821.06	253.00
821.37	252.00
821.68	261.00
821.99	261.00
822.30	255.00
822.61	263.00
822.92	260.00
823.23	257.00
823.54	261.00
823.85	260.00
824.15	265.00
824.46	263.00
824.77	266.00
825.08	266.00
825.39	265.00
825.70	275.00
826.01	266.00
826.32	264.00
826.63	268.00
826.94	265.00
827.24	270.00
827.55	271.00
827.86	276.00
828.17	274.00
828.48	274.00
828.79	302.00
829.10	289.00
829.41	288.00
829.71	282.00
830.02	278.00
830.33	282.00
830.64	294.00
830.95	287.00
831.25	290.00
831.56	288.00
831.87	305.00
832.18	283.00
832.49	295.00
832.80	295.00
833.10	290.00
833.41	297.00
833.72	293.00
834.03	296.00
834.33	302.00
834.64	300.00
834.95	315.00
835.26	318.00
835.56	296.00
835.87	312.00
836.18	308.00
836.49	306.00
836.79	314.00
837.10	308.00
837.41	309.00
837.72	304.00
838.02	312.00
838.33	320.00
838.64	315.00
838.94	335.00
839.25	320.00
839.56	324.00
839.86	326.00
840.17	326.00
840.48	349.00
840.78	319.00
841.09	324.00
841.40	333.00
841.70	335.00
842.01	332.00
842.32	342.00
842.62	352.00
842.93	336.00
843.24	343.00
843.54	339.00
843.85	344.00
844.15	358.00
844.46	361.00
844.77	357.00
845.07	362.00
845.38	358.00
845.68	351.00
845.99	354.00
846.30	351.00
846.60	371.00
846.91	354.00
847.21	365.00
847.52	363.00
847.82	361.00
848.13	364.00
848.43	364.00
848.74	376.00
849.05	379.00
849.35	384.00
849.66	385.00
849.96	381.00
850.27	378.00
850.57	370.00
850.88	385.00
851.18	375.00
851.49	397.00
851.79	388.00
852.10	401.00
852.40	394.00
852.71	399.00
853.01	394.00
853.32	407.00
853.62	402.00
853.92	392.00
854.23	400.00
854.53	406.00
854.84	401.00
855.14	391.00
855.45	400.00
855.75	393.00
856.05	419.00
856.36	400.00
856.66	414.00
856.97	413.00
857.27	419.00
857.57	430.00
857.88	420.00
858.18	420.00
858.49	431.00
858.79	421.00
859.09	427.00
859.40	405.00
859.70	417.00
860.00	445.00
860.31	419.00
860.61	445.00
860.92	435.00
861.22	436.00
861.52	437.00
861.82	437.00
862.13	436.00
862.43	431.00
862.73	433.00
863.04	437.00
863.34	438.00
863.64	444.00
863.95	437.00
864.25	449.00
864.55	457.00
864.85	449.00
865.16	451.00
865.46	452.00
865.76	462.00
866.07	466.00
866.37	454.00
866.67	456.00
866.97	459.00
867.27	470.00
867.58	463.00
867.88	451.00
868.18	453.00
868.48	455.00
868.79	463.00
869.09	465.00
869.39	456.00
869.69	468.00
869.99	459.00
870.30	469.00
870.60	451.00
870.90	447.00
871.20	459.00
871.50	464.00
871.80	461.00
872.11	455.00
872.41	471.00
872.71	463.00
873.01	455.00
873.31	448.00
873.61	462.00
873.91	447.00
874.21	457.00
874.52	451.00
874.82	461.00
875.12	461.00
875.42	453.00
875.72	459.00
876.02	466.00
876.32	458.00
876.62	469.00
876.92	460.00
877.22	469.00
877.52	470.00
877.83	460.00
878.13	472.00
878.43	459.00
878.73	472.00
879.03	455.00
879.33	471.00
879.63	487.00
879.93	472.00
880.23	475.00
880.53	470.00
880.83	478.00
881.13	463.00
881.43	480.00
881.73	492.00
882.03	484.00
882.33	497.00
882.63	486.00
882.93	485.00
883.23	496.00
883.53	497.00
883.83	499.00
884.13	510.00
884.42	490.00
884.72	491.00
885.02	502.00
885.32	503.00
885.62	512.00
885.92	505.00
886.22	492.00
886.52	505.00
886.82	500.00
887.12	525.00
887.42	513.00
887.72	534.00
888.01	515.00
888.31	521.00
888.61	528.00
888.91	514.00
889.21	534.00
889.51	522.00
889.81	529.00
890.10	537.00
890.40	531.00
890.70	536.00
891.00	560.00
891.30	529.00
891.60	538.00
891.89	541.00
892.19	547.00
892.49	546.00
892.79	552.00
893.09	554.00
893.38	543.00
893.68	553.00
893.98	551.00
894.28	541.00
894.58	559.00
894.87	556.00
895.17	552.00
895.47	560.00
895.77	547.00
896.06	545.00
896.36	554.00
896.66	560.00
896.96	559.00
897.25	560.00
897.55	552.00
897.85	565.00
898.14	554.00
898.44	568.00
898.74	552.00
899.04	584.00
899.33	552.00
899.63	562.00
899.93	557.00
900.22	566.00
900.52	574.00
900.82	563.00
901.11	573.00
901.41	567.00
901.71	555.00
902.00	554.00
902.30	567.00
902.59	571.00
902.89	563.00
903.19	575.00
903.48	557.00
903.78	560.00
904.08	553.00
904.37	570.00
904.67	555.00
904.96	559.00
905.26	568.00
905.55	555.00
905.85	554.00
906.15	559.00
906.44	569.00
906.74	563.00
907.03	553.00
907.33	552.00
907.62	541.00
907.92	556.00
908.21	548.00
908.51	555.00
908.80	544.00
909.10	543.00
909.40	530.00
909.69	543.00
909.99	532.00
910.28	545.00
910.57	546.00
910.87	546.00
911.16	540.00
911.46	531.00
911.75	540.00
912.05	548.00
912.34	544.00
912.64	546.00
912.93	530.00
913.23	534.00
913.52	515.00
913.82	521.00
914.11	509.00
914.40	526.00
914.70	519.00
914.99	529.00
915.29	508.00
915.58	509.00
915.87	501.00
916.17	493.00
916.46	500.00
916.76	493.00
917.05	496.00
917.34	487.00
917.64	479.00
917.93	501.00
918.22	481.00
918.52	464.00
918.81	460.00
919.10	480.00
919.40	475.00
919.69	474.00
919.98	479.00
920.28	465.00
920.57	466.00
920.86	457.00
921.16	450.00
921.45	463.00
921.74	456.00
922.04	453.00
922.33	444.00
922.62	446.00
922.91	432.00
923.21	438.00
923.50	442.00
923.79	434.00
924.08	438.00
924.38	414.00
924.67	414.00
924.96	421.00
925.25	404.00
925.55	400.00
925.84	407.00
926.13	405.00
926.42	405.00
926.71	389.00
927.01	392.00
927.30	387.00
927.59	387.00
927.88	380.00
928.17	368.00
928.46	369.00
928.76	372.00
929.05	363.00
929.34	363.00
929.63	353.00
929.92	354.00
930.21	346.00
930.50	346.00
930.80	327.00
931.09	343.00
931.38	336.00
931.67	325.00
931.96	312.00
932.25	311.00
932.54	310.00
932.83	296.00
933.12	294.00
933.41	285.00
933.71	272.00
934.00	272.00
934.29	270.00
934.58	255.00
934.87	240.00
935.16	248.00
935.45	229.00
935.74	222.00
936.03	229.00
936.32	205.00
936.61	200.00
936.90	183.00
937.19	177.00
937.48	174.00
937.77	164.00
938.06	156.00
938.35	162.00
938.64	143.00
938.93	143.00
939.22	135.00
939.51	142.00
939.80	127.00
940.09	116.00
940.38	125.00
940.67	119.00
940.96	109.00
941.25	114.00
941.53	112.00
941.82	101.00
942.11	100.00
942.40	100.00
942.69	109.00
942.98	85.00
943.27	93.00
943.56	96.00
943.85	92.00
944.14	94.00
944.42	90.00
944.71	90.00
945.00	92.00
945.29	91.00
945.58	101.00
945.87	96.00
946.16	97.00
946.44	90.00
946.73	94.00
947.02	97.00
947.31	106.00
947.60	104.00
947.89	104.00
948.17	108.00
948.46	103.00
948.75	103.00
949.04	110.00
949.32	102.00
949.61	100.00
949.90	108.00
950.19	112.00
950.48	109.00
950.76	119.00
951.05	105.00
951.34	117.00
951.63	120.00
951.91	127.00
952.20	135.00
952.49	131.00
952.77	130.00
953.06	123.00
953.35	134.00
953.64	131.00
953.92	136.00
954.21	135.00
954.50	142.00
954.78	134.00
955.07	138.00
955.36	149.00
955.64	133.00
955.93	139.00
956.22	145.00
956.50	146.00
956.79	149.00
957.08	146.00
957.36	144.00
957.65	141.00
957.93	148.00
958.22	148.00
958.51	142.00
958.79	154.00
959.08	169.00
959.36	155.00
959.65	148.00
959.94	159.00
960.22	159.00
960.51	148.00
960.79	160.00
961.08	154.00
961.36	156.00
961.65	169.00
961.94	155.00
962.22	157.00
962.51	159.00
962.79	160.00
963.08	158.00
963.36	162.00
963.65	162.00
963.93	161.00
964.22	171.00
964.50	166.00
964.79	164.00
965.07	162.00
965.36	171.00
965.64	171.00
965.93	152.00
966.21	152.00
966.49	160.00
966.78	160.00
967.06	167.00
967.35	170.00
967.63	167.00
967.92	163.00
968.20	164.00
968.48	169.00
968.77	160.00
969.05	171.00
969.34	166.00
969.62	180.00
969.90	165.00
970.19	162.00
970.47	168.00
970.76	173.00
971.04	158.00
971.32	168.00
971.61	167.00
971.89	168.00
972.17	163.00
972.46	170.00
972.74	153.00
973.02	165.00
973.31	152.00
973.59	162.00
973.87	158.00
974.16	147.00
974.44	160.00
974.72	156.00
975.00	165.00
975.29	163.00
975.57	155.00
975.85	155.00
976.14	157.00
976.42	149.00
976.70	148.00
976.98	151.00
977.27	143.00
977.55	161.00
977.83	149.00
978.11	145.00
978.39	152.00
978.68	143.00
978.96	149.00
979.24	150.00
979.52	145.00
979.81	149.00
980.09	148.00
980.37	140.00
980.65	138.00
980.93	142.00
981.21	140.00
981.50	141.00
981.78	140.00
982.06	134.00
982.34	142.00
982.62	143.00
982.90	140.00
983.18	133.00
983.47	132.00
983.75	131.00
984.03	134.00
984.31	130.00
984.59	146.00
984.87	135.00
985.15	118.00
985.43	128.00
985.71	119.00
985.99	132.00
986.27	122.00
986.55	136.00
986.84	132.00
987.12	134.00
987.40	127.00
987.68	128.00
987.96	122.00
988.24	120.00
988.52	126.00
988.80	120.00
989.08	118.00
989.36	122.00
989.64	114.00
989.92	116.00
990.20	108.00
990.48	113.00
990.76	124.00
991.04	107.00
991.32	120.00
991.60	107.00
991.88	108.00
992.16	107.00
992.43	112.00
992.71	111.00
992.99	108.00
993.27	106.00
993.55	118.00
993.83	109.00
994.11	98.00
994.39	103.00
994.67	100.00
994.95	105.00
995.23	109.00
995.50	101.00
995.78	106.00
996.06	94.00
996.34	99.00
996.62	104.00
996.90	95.00
997.18	106.00
997.45	94.00
997.73	98.00
998.01	90.00
998.29	94.00
998.57	90.00
998.85	86.00
999.12	91.00
999.40	88.00
999.68	86.00
999.96	88.00
1000.24	91.00
1000.51	91.00
1000.79	84.00
1001.07	93.00
1001.35	90.00
1001.62	86.00
1001.90	91.00
1002.18	81.00
1002.46	78.00
1002.73	82.00
1003.01	88.00
1003.29	81.00
1003.56	78.00
1003.84	84.00
1004.12	78.00
1004.40	77.00
1004.67	72.00
1004.95	74.00
>>>>>End Processed Spectral Data<<<<<
